subj_idx,trial,response,rt
126,X1,0,8.402231173
126,X2,1,8.760766624
126,X3,0,8.76561455
126,X4,1,7.941295571
126,X5,1,8.663714844
126,X6,0,8.538758969
126,X7,1,9.067854724
126,X8,0,7.993282328
126,X9,1,8.169336396
126,X10,1,8.442900587
126,X11,1,8.765770544
126,X12,1,9.210240367
126,X13,0,8.320204598
126,X14,1,8.283494126
126,X15,0,7.892452044
126,X16,0,8.105307516
126,X17,1,7.947678571
126,X18,0,8.037866235
126,X19,0,8.588583188
126,X20,1,8.477204183
126,X21,1,8.360539381
126,X22,0,8.48115142
126,X23,1,8.605020902
126,X24,1,8.686091728
126,X25,0,8.43771699
126,X26,1,8.796338933
126,X27,0,8.046229101
126,X28,1,7.813995675
126,X29,1,8.408270784
126,X30,1,8.394799543
126,X31,0,7.963460067
126,X32,0,8.145549632
126,X33,0,8.29729437
126,X34,0,7.895808377
126,X35,1,8.336630088
126,X36,0,8.251924714
126,X37,0,7.948738455
126,X38,1,7.763871288
126,X39,0,8.715716128
126,X40,0,8.000684785
127,X1,0,8.404024493
127,X2,0,8.045908742
127,X3,1,7.842278779
127,X4,1,6.559615237
127,X5,1,6.658011046
127,X6,0,7.38832786
127,X7,0,6.687108608
127,X8,1,6.601230119
127,X9,0,6.570882962
127,X10,0,7.268223021
127,X11,1,7.19142933
127,X12,0,7.688913337
127,X13,1,7.857093865
127,X14,1,7.335633982
127,X15,1,6.685860947
127,X16,1,7.973844376
127,X17,0,7.171656823
127,X18,0,7.393263095
127,X19,1,8.02486215
127,X20,0,8.077447149
127,X21,0,8.203577737
127,X22,1,7.972121129
127,X23,1,7.333023014
127,X24,1,5.638354669
127,X25,1,6.487684018
127,X26,0,7.737616283
127,X27,0,6.510258341
127,X28,1,6.458338283
127,X29,1,6.635946556
127,X30,1,8.417372856
127,X31,0,6.941190055
127,X32,1,6.263398263
127,X33,0,6.50578406
127,X34,1,5.966146739
127,X35,1,6.447305863
127,X36,0,6.37331979
127,X37,1,6.498282149
127,X38,0,6.595780514
127,X39,0,7.239932591
127,X40,0,8.071530894
128,X1,1,8.719480761
128,X2,1,8.344505084
128,X3,1,8.568266462
128,X4,1,9.247925132
128,X5,0,8.1285852
128,X6,1,8.390722527
128,X7,0,8.467792841
128,X8,1,8.293799609
128,X9,1,8.399984991
128,X10,0,8.500860537
128,X11,0,8.902455592
128,X12,0,8.692490133
128,X13,1,8.212568398
128,X14,1,9.066816362
128,X15,0,8.335191583
128,X16,1,8.487764381
128,X17,0,8.495969555
128,X18,1,8.689801056
128,X19,1,8.590815331
128,X20,0,8.806723555
128,X21,1,8.881558489
128,X22,1,7.984462732
128,X23,1,8.265392931
128,X24,0,8.192570471
128,X25,0,9.122601458
128,X26,1,8.289790583
128,X27,1,8.430109085
128,X28,0,8.680501809
128,X29,0,7.95927596
128,X30,1,9.061144066
128,X31,1,8.372398607
128,X32,0,8.510369966
128,X33,1,7.97590836
128,X34,1,8.186185994
128,X35,1,8.548304186
128,X36,1,9.567595148
128,X37,1,8.037866235
128,X38,1,9.005895898
128,X39,1,8.095293777
128,X40,1,8.48941081
129,X1,1,8.70383872
129,X2,1,8.738895705
129,X3,0,8.153637486
129,X4,0,8.750524669
129,X5,0,8.093156698
129,X6,0,9.208137948
129,X7,1,8.750207863
129,X8,1,8.697846691
129,X9,1,8.206310726
129,X10,0,8.074026216
129,X11,0,8.774622221
129,X12,1,7.942006808
129,X13,1,8.061486867
129,X14,1,8.458928283
129,X15,1,8.356554845
129,X16,1,8.609590041
129,X17,0,8.809265612
129,X18,1,8.280711076
129,X19,0,8.964567703
129,X20,1,8.887928819
129,X21,0,9.673696959
129,X22,1,8.216628493
129,X23,0,8.399310151
129,X24,1,8.255568653
129,X25,1,8.243808424
129,X26,0,8.16251625
129,X27,1,8.397508348
129,X28,0,8.404919949
129,X29,1,8.346879254
129,X30,1,8.793915424
129,X31,0,7.957877358
129,X32,0,8.35678967
129,X33,0,8.186742787
129,X34,1,8.085794701
129,X35,1,8.214735833
129,X36,1,8.073402969
129,X37,1,8.135053909
129,X38,0,8.478244441
129,X39,0,8.397508348
129,X40,1,8.028781162
130,X1,0,8.003363059
130,X2,1,7.074963198
130,X3,0,7.299121463
130,X4,0,6.693323668
130,X5,0,7.40671073
130,X6,0,6.814542897
130,X7,1,6.495265556
130,X8,1,6.988413182
130,X9,0,7.005789019
130,X10,0,7.899153483
130,X11,0,6.839476438
130,X12,0,7.695303135
130,X13,1,7.945555428
130,X14,0,7.25981961
130,X15,0,7.925880317
130,X16,1,6.632001777
130,X17,0,6.914730893
130,X18,0,7.075808864
130,X19,1,7.984121959
130,X20,0,5.545177444
130,X21,1,6.663132696
130,X22,1,6.865891075
130,X23,1,7.494430215
130,X24,0,6.938284484
130,X25,1,7.055312843
130,X26,1,6.354370041
130,X27,1,6.520621128
130,X28,1,6.421622268
130,X29,1,6.721425701
130,X30,1,6.857514063
130,X31,0,6.588926478
130,X32,1,6.621405652
130,X33,0,6.760414691
130,X34,0,7.551186867
130,X35,0,6.952728645
130,X36,1,7.140453043
130,X37,1,6.805722553
130,X38,1,7.546446274
130,X39,0,6.874198495
130,X40,1,6.661854741
131,X1,1,8.952475968
131,X2,1,7.984462732
131,X3,1,8.058327307
131,X4,1,8.234034208
131,X5,0,7.919719761
131,X6,1,8.504107952
131,X7,0,8.261268151
131,X8,1,8.553332238
131,X9,1,8.279443488
131,X10,0,8.100464891
131,X11,1,8.02975852
131,X12,1,8.060540047
131,X13,1,8.532869671
131,X14,0,8.59396903
131,X15,0,8.332789468
131,X16,0,8.083019919
131,X17,0,8.876125585
131,X18,0,7.93701749
131,X19,1,7.862882035
131,X20,1,7.809135398
131,X21,1,8.48941081
131,X22,0,8.248790734
131,X23,1,8.170468578
131,X24,1,7.792761721
131,X25,0,8.236155662
131,X26,0,7.596392304
131,X27,1,7.786136438
131,X28,1,8.165932137
131,X29,0,8.633196867
131,X30,0,7.542743545
131,X31,1,7.184629153
131,X32,0,7.555381944
131,X33,0,7.76937861
131,X34,0,8.087947555
131,X35,1,7.60090246
131,X36,0,7.872836175
131,X37,0,7.288244401
131,X38,1,7.922623574
131,X39,0,7.710205194
131,X40,0,8.410720947
132,X1,0,8.82511897
132,X2,1,8.160232492
132,X3,0,8.106816039
132,X4,0,8.628555659
132,X5,1,8.756210092
132,X6,0,8.404248432
132,X7,1,8.077136639
132,X8,1,8.121183242
132,X9,1,8.178638789
132,X10,1,7.892452044
132,X11,1,8.401108712
132,X12,1,8.291295852
132,X13,0,9.478533768
132,X14,0,8.370315996
132,X15,1,8.377701213
132,X16,1,8.020927719
132,X17,0,8.011023379
132,X18,1,8.146998697
132,X19,0,7.92732436
132,X20,1,9.214631153
132,X21,0,8.203304027
132,X22,1,8.165079259
132,X23,0,8.678801707
132,X24,1,8.24196656
132,X25,1,8.23350314
132,X26,1,8.146709052
132,X27,0,8.358900612
132,X28,1,8.104401308
132,X29,0,8.082093278
132,X30,0,7.823645931
132,X31,1,8.429672594
132,X32,0,8.609407675
132,X33,1,8.808070155
132,X34,0,8.041091004
132,X35,0,7.506042179
132,X36,0,8.853236765
132,X37,1,8.203304027
132,X38,1,7.791935957
132,X39,1,7.826842098
132,X40,0,7.53689713
133,X1,0,8.648747631
133,X2,1,7.548555979
133,X3,0,8.271292653
133,X4,1,7.38274645
133,X5,1,7.655864018
133,X6,0,8.43511508
133,X7,1,7.825644732
133,X8,0,8.633018757
133,X9,0,8.618485443
133,X10,0,8.135932772
133,X11,1,8.455955882
133,X12,1,9.045347797
133,X13,0,7.856319571
133,X14,1,8.149601736
133,X15,0,8.493105396
133,X16,1,8.292298107
133,X17,0,8.510168576
133,X18,0,8.210668031
133,X19,0,8.118802997
133,X20,1,7.963460067
133,X21,1,8.481566014
133,X22,1,8.738414897
133,X23,1,8.352554369
133,X24,0,9.436439551
133,X25,0,8.640825752
133,X26,0,7.564238475
133,X27,1,7.955074273
133,X28,1,7.989899375
133,X29,0,7.702556113
133,X30,0,7.490529402
133,X31,0,8.181720455
133,X32,0,7.815207062
133,X33,1,7.913155186
133,X34,0,7.592366129
133,X35,0,8.416930769
133,X36,0,6.856461985
133,X37,0,8.093767758
133,X38,1,8.118207049
133,X39,0,7.069874128
133,X40,1,8.667852068
134,X1,1,8.274102002
134,X2,0,8.521981708
134,X3,0,7.959625305
134,X4,0,8.062747901
134,X5,1,8.292298107
134,X6,1,8.597851094
134,X7,1,8.698847859
134,X8,0,7.694392803
134,X9,0,7.761744985
134,X10,0,8.675563527
134,X11,1,8.500250471
134,X12,0,8.133293861
134,X13,0,7.844240718
134,X14,0,7.781555959
134,X15,0,8.000349495
134,X16,1,7.914252279
134,X17,0,7.652070746
134,X18,1,8.34640487
134,X19,1,7.709756864
134,X20,1,8.142063283
134,X21,0,7.640603826
134,X22,0,8.617038526
134,X23,1,7.546446274
134,X24,0,7.550661243
134,X25,0,7.724888439
134,X26,1,8.058010801
134,X27,0,7.738052298
134,X28,1,7.608870629
134,X29,1,7.426549072
134,X30,1,7.483244416
134,X31,0,7.777792626
134,X32,0,7.011213987
134,X33,0,7.517520851
134,X34,1,7.443663683
134,X35,1,7.216709487
134,X36,0,7.377758908
134,X37,0,7.410951876
134,X38,0,6.766191715
134,X39,1,6.674561392
134,X40,0,6.65544035
135,X1,1,9.085343882
135,X2,0,9.171703488
135,X3,1,8.742414583
135,X4,1,8.912338567
135,X5,0,8.815073089
135,X6,1,8.077757564
135,X7,1,8.900412691
135,X8,1,8.915432254
135,X9,1,8.655737001
135,X10,1,8.861491864
135,X11,0,8.631771096
135,X12,1,8.534443545
135,X13,1,8.540714386
135,X14,1,7.945555428
135,X15,1,8.075582637
135,X16,1,8.223358899
135,X17,0,8.265392931
135,X18,1,8.199464198
135,X19,1,8.399984991
135,X20,1,8.179199798
135,X21,1,9.140668699
135,X22,1,8.419359831
135,X23,0,8.248790734
135,X24,0,8.047829357
135,X25,1,8.317277766
135,X26,0,8.161375023
135,X27,1,8.13123655
135,X28,1,8.460834458
135,X29,1,9.323579768
135,X30,1,7.924795914
135,X31,1,7.944137491
135,X32,1,8.187021067
135,X33,1,8.187855444
135,X34,0,8.278682163
135,X35,1,8.056743775
135,X36,0,7.977968093
135,X37,1,8.078998259
135,X38,0,8.037220031
135,X39,1,7.999678579
135,X40,1,8.344029572
136,X1,0,9.458605712
136,X2,1,8.562166557
136,X3,0,8.673683988
136,X4,0,8.847647356
136,X5,1,8.587092319
136,X6,0,8.537779825
136,X7,0,9.264639145
136,X8,1,9.048997222
136,X9,0,8.949365142
136,X10,0,8.193676666
136,X11,1,8.416488487
136,X12,1,8.771059915
136,X13,0,8.659386957
136,X14,1,8.204398418
136,X15,1,8.345930262
136,X16,1,8.353732642
136,X17,0,8.783855897
136,X18,1,9.099185323
136,X19,1,7.808729307
136,X20,0,8.686598356
136,X21,0,8.346879254
136,X22,1,9.060563447
136,X23,0,8.164510269
136,X24,0,8.211211362
136,X25,0,8.404248432
136,X26,0,8.236685323
136,X27,1,6.970730078
136,X28,0,8.516593011
136,X29,0,8.39208338
136,X30,0,8.303999971
136,X31,0,8.185071478
136,X32,0,8.425077903
136,X33,0,7.473637108
136,X34,0,8.514389264
136,X35,1,8.188133415
136,X36,0,8.348301055
136,X37,1,8.380456668
136,X38,0,8.411610429
136,X39,0,8.078067882
136,X40,0,8.481980436
137,X1,0,8.818630229
137,X2,1,8.188966864
137,X3,1,7.987864096
137,X4,0,8.711937268
137,X5,1,8.117014088
137,X6,1,8.324578845
137,X7,1,8.97373157
137,X8,0,7.821643126
137,X9,0,7.408530567
137,X10,1,8.350193651
137,X11,1,8.160803921
137,X12,1,8.636042325
137,X13,0,8.593598523
137,X14,0,8.434463544
137,X15,1,8.598404447
137,X16,0,8.498418036
137,X17,0,8.101071503
137,X18,0,8.027802848
137,X19,0,8.089175679
137,X20,1,8.06117136
137,X21,1,7.660585462
137,X22,0,8.58541243
137,X23,1,7.826044014
137,X24,1,8.471777328
137,X25,1,8.575650761
137,X26,1,9.186969386
137,X27,1,7.161622003
137,X28,1,7.210818453
137,X29,0,8.176672772
137,X30,0,7.805474625
137,X31,1,8.154500175
137,X32,0,8.362175469
137,X33,0,8.043663352
137,X34,0,8.933268479
137,X35,1,8.148734809
137,X36,1,8.841448244
137,X37,0,7.857480787
137,X38,1,8.522976436
137,X39,0,8.173857455
137,X40,1,8.19007705
138,X1,0,8.405367376
138,X2,0,8.708309296
138,X3,1,7.779466967
138,X4,1,8.122371243
138,X5,1,7.837554361
138,X6,0,7.828834528
138,X7,0,8.013674143
138,X8,0,7.520776415
138,X9,1,7.489412084
138,X10,1,7.412764017
138,X11,0,7.741533589
138,X12,1,7.640603826
138,X13,1,7.871311203
138,X14,0,8.13710339
138,X15,1,7.852827812
138,X16,0,7.409741954
138,X17,0,7.582229194
138,X18,0,7.693481641
138,X19,0,7.424165281
138,X20,0,7.982416347
138,X21,0,7.534762657
138,X22,0,7.420578905
138,X23,0,8.459352192
138,X24,1,7.99530662
138,X25,1,7.519692404
138,X26,0,8.589885877
138,X27,1,7.951559331
138,X28,0,7.029972912
138,X29,0,7.519692404
138,X30,0,7.138867
138,X31,1,7.657282793
138,X32,1,8.323851131
138,X33,1,7.295735073
138,X34,1,6.921658184
138,X35,1,7.775275846
138,X36,0,7.344072851
138,X37,1,8.200562797
138,X38,0,8.364508104
138,X39,0,7.579167967
138,X40,0,7.40671073
139,X1,1,8.295548516
139,X2,0,7.291656209
139,X3,1,7.050989447
139,X4,1,7.487733761
139,X5,1,11.66293042
139,X6,0,7.418180823
139,X7,0,7.221835825
139,X8,0,7.245655068
139,X9,0,7.402451521
139,X10,0,7.221105098
139,X11,1,6.97634807
139,X12,1,6.605297921
139,X13,0,6.432940093
139,X14,0,6.878326468
139,X15,0,6.841615476
139,X16,1,7.187657164
139,X17,1,8.815815204
139,X18,0,7.245655068
139,X19,1,7.049254841
139,X20,1,8.779865101
139,X21,0,7.291656209
139,X22,0,7.257707677
139,X23,1,6.991176887
139,X24,0,7.22329568
139,X25,0,8.431199478
139,X26,0,6.941190055
139,X27,1,7.469654173
139,X28,1,6.668228248
139,X29,1,10.80194013
139,X30,0,8.597851094
139,X31,1,7.524561226
139,X32,1,7.718685495
139,X33,1,7.093404626
139,X34,1,6.646390515
139,X35,0,7.196686571
139,X36,1,6.284134161
139,X37,0,6.744059186
139,X38,0,7.037027615
139,X39,1,7.079184395
139,X40,1,6.432940093
140,X1,0,8.632484236
140,X2,0,8.481980436
140,X3,1,7.814399634
140,X4,0,7.513163545
140,X5,1,7.815207062
140,X6,0,8.434463544
140,X7,1,8.146419323
140,X8,1,8.24117615
140,X9,1,7.407924323
140,X10,1,7.664815785
140,X11,0,7.723120092
140,X12,0,8.167068178
140,X13,1,7.763021309
140,X14,1,7.796057974
140,X15,0,7.39387829
140,X16,1,7.582229194
140,X17,1,7.526178913
140,X18,1,7.35436233
140,X19,1,8.035278911
140,X20,1,8.011686729
140,X21,1,7.893572074
140,X22,0,8.416488487
140,X23,1,7.9683195
140,X24,0,7.809947086
140,X25,0,7.687997166
140,X26,0,7.857867559
140,X27,0,7.826842098
140,X28,0,7.398786275
140,X29,0,7.475905969
140,X30,0,8.157943507
140,X31,0,7.756623335
140,X32,1,7.803435057
140,X33,1,7.660114319
140,X34,0,8.318010278
140,X35,1,9.218010878
140,X36,0,5.669880923
140,X37,0,12.06856765
140,X38,0,9.622383795
140,X39,0,12.33613992
140,X40,1,7.330405212
141,X1,1,8.186185994
141,X2,1,8.019283793
141,X3,1,8.899321434
141,X4,1,8.045267717
141,X5,0,7.862882035
141,X6,0,7.765569081
141,X7,1,7.563719668
141,X8,0,7.933438388
141,X9,1,7.551186867
141,X10,1,8.416046009
141,X11,1,7.687997166
141,X12,0,8.138272639
141,X13,0,8.024534872
141,X14,0,7.673688129
141,X15,1,7.762170607
141,X16,1,8.027150107
141,X17,1,7.411556288
141,X18,1,7.310550159
141,X19,0,7.159291905
141,X20,1,5.572154032
141,X21,1,7.789454566
141,X22,1,7.734996194
141,X23,0,7.141245122
141,X24,1,8.100161447
141,X25,0,7.877776333
141,X26,0,7.669961995
141,X27,0,7.320526962
141,X28,0,7.299121463
141,X29,1,7.673223121
141,X30,1,7.856319571
141,X31,0,7.489970899
141,X32,1,7.502738211
141,X33,1,7.425953657
141,X34,0,7.231287004
141,X35,1,6.961296046
141,X36,1,7.026426809
141,X37,1,7.762596049
141,X38,0,7.631916513
141,X39,1,9.057422266
141,X40,0,7.825245291
142,X1,1,8.24617156
142,X2,1,8.061486867
142,X3,1,7.940583827
142,X4,0,8.518192692
142,X5,0,7.868636894
142,X6,0,7.741533589
142,X7,1,8.814330423
142,X8,0,7.63336965
142,X9,0,7.89469085
142,X10,1,8.355144739
142,X11,0,8.016977747
142,X12,0,7.901377354
142,X13,0,8.078067882
142,X14,1,8.436633684
142,X15,0,7.815610532
142,X16,1,7.478734826
142,X17,1,8.24957515
142,X18,1,7.828038032
142,X19,1,8.32651683
142,X20,0,8.404024493
142,X21,1,8.647694999
142,X22,1,7.260522598
142,X23,1,7.619233416
142,X24,1,8.001355026
142,X25,1,8.041091004
142,X26,0,7.608374474
142,X27,0,8.228176896
142,X28,1,7.845416037
142,X29,0,7.659171368
142,X30,0,7.884952946
142,X31,1,8.033982735
142,X32,1,7.218909708
142,X33,0,7.760893196
142,X34,1,8.532278829
142,X35,1,7.553286606
142,X36,0,7.628031127
142,X37,0,7.976251944
142,X38,0,8.930229565
142,X39,1,7.372746366
142,X40,0,7.791109511
143,X1,0,8.408047744
143,X2,0,7.60339934
143,X3,0,8.19753874
143,X4,0,7.847762537
143,X5,0,7.757906208
143,X6,1,7.625107148
143,X7,0,7.803843304
143,X8,1,7.639642288
143,X9,1,8.203577737
143,X10,0,7.410347098
143,X11,0,7.846198815
143,X12,1,7.699842407
143,X13,0,7.36264527
143,X14,0,7.726212651
143,X15,1,8.030084094
143,X16,1,7.605890001
143,X17,1,7.305860033
143,X18,0,9.248791558
143,X19,0,7.415776975
143,X20,1,7.365180126
143,X21,1,7.502186487
143,X22,1,7.106606138
143,X23,0,7.168579897
143,X24,0,7.185387016
143,X25,0,8.583542572
143,X26,0,8.631414336
143,X27,0,7.499976541
143,X28,1,7.432483808
143,X29,1,7.454719949
143,X30,0,7.276556403
143,X31,0,7.617267814
143,X32,1,7.309881486
143,X33,0,7.203405521
143,X34,1,7.298445102
143,X35,1,7.845024417
143,X36,0,8.383661799
143,X37,0,8.564649133
143,X38,1,9.451245253
143,X39,1,7.61283103
143,X40,0,8.026496939
144,X1,1,8.880307359
144,X2,1,8.42398081
144,X3,0,8.666819365
144,X4,1,8.614319902
144,X5,1,7.804659297
144,X6,1,7.896924656
144,X7,1,8.041412909
144,X8,0,7.975220839
144,X9,1,8.533460164
144,X10,1,7.827639546
144,X11,1,8.027150107
144,X12,1,8.837536046
144,X13,0,8.096512918
144,X14,0,7.720905252
144,X15,0,7.643961949
144,X16,0,8.532475815
144,X17,1,7.83991936
144,X18,1,8.179199798
144,X19,1,8.305236829
144,X20,0,7.681099002
144,X21,0,7.625595072
144,X22,1,7.954372273
144,X23,0,8.059276223
144,X24,0,7.578656851
144,X25,1,7.902117546
144,X26,0,9.21949831
144,X27,0,7.483806688
144,X28,0,7.658699558
144,X29,0,8.23562572
144,X30,1,7.973844376
144,X31,1,8.91449171
144,X32,1,7.632885505
144,X33,1,8.602085658
144,X34,1,8.379768516
144,X35,1,7.679251426
144,X36,0,8.353732642
144,X37,0,8.295548516
144,X38,0,7.611347717
144,X39,0,7.386470849
144,X40,0,7.957177323
145,X1,1,8.701845364
145,X2,0,8.543835122
145,X3,0,8.73777346
145,X4,0,8.605387202
145,X5,1,7.801800402
145,X6,0,8.433594168
145,X7,1,8.425297177
145,X8,1,8.332067707
145,X9,0,8.378390789
145,X10,1,8.582418976
145,X11,0,10.9086496
145,X12,0,8.009695358
145,X13,1,8.592300664
145,X14,0,8.656607247
145,X15,1,11.05635126
145,X16,0,7.897668151
145,X17,1,8.120588712
145,X18,1,8.443546651
145,X19,0,8.815963561
145,X20,1,8.658171785
145,X21,1,8.341410211
145,X22,0,7.751475318
145,X23,0,9.677088709
145,X24,1,8.464003363
145,X25,1,8.774158291
145,X26,1,8.14293601
145,X27,1,8.29404964
145,X28,0,8.679992082
145,X29,0,8.947025656
145,X30,0,8.257644958
145,X31,0,7.705712824
145,X32,0,7.498869734
145,X33,0,8.661639796
145,X34,0,8.476787777
145,X35,1,8.77971129
145,X36,0,8.112227958
145,X37,0,8.490849216
145,X38,0,8.877242436
145,X39,0,8.266678443
145,X40,0,8.068402959
146,X1,0,9.49597034
146,X2,0,8.496378052
146,X3,1,9.587817444
146,X4,1,8.416488487
146,X5,1,8.511577453
146,X6,1,8.431417414
146,X7,1,9.991818891
146,X8,0,8.81150325
146,X9,0,8.313607139
146,X10,1,8.370779173
146,X11,0,8.911395107
146,X12,0,8.047509511
146,X13,1,8.591186871
146,X14,0,10.59335436
146,X15,1,9.09728365
146,X16,1,9.926862224
146,X17,1,9.143345503
146,X18,0,8.708144075
146,X19,1,10.63899954
146,X20,1,8.541300267
146,X21,0,11.02446454
146,X22,1,10.23340262
146,X23,1,8.498010372
146,X24,0,9.187992508
146,X25,0,8.864887934
146,X26,0,9.760252084
146,X27,1,9.098179005
146,X28,0,10.02954735
146,X29,0,8.956866471
146,X30,0,8.906393407
146,X31,0,8.65434303
146,X32,0,9.960056904
146,X33,0,10.7182327
146,X34,1,8.117014088
146,X35,0,9.453208116
146,X36,1,8.29504914
146,X37,0,10.56993135
146,X38,1,8.485289642
146,X39,1,8.200562797
146,X40,0,8.881697406
147,X1,1,8.552946361
147,X2,1,8.934059722
147,X3,1,8.227375507
147,X4,1,8.740976538
147,X5,1,7.559559496
147,X6,0,8.213652703
147,X7,0,8.48941081
147,X8,0,8.48714627
147,X9,1,8.691818542
147,X10,0,8.678291112
147,X11,1,8.137688185
147,X12,0,8.445052514
147,X13,0,9.160834952
147,X14,0,8.016647877
147,X15,1,8.464425126
147,X16,1,8.576216532
147,X17,1,9.366403508
147,X18,0,9.14174028
147,X19,0,8.376320633
147,X20,0,7.522940918
147,X21,1,9.124455633
147,X22,1,8.574140472
147,X23,0,8.256347773
147,X24,1,8.994048296
147,X25,0,8.495356497
147,X26,1,8.537779825
147,X27,0,8.345692873
147,X28,0,8.76795191
147,X29,1,8.117312462
147,X30,1,9.099185323
147,X31,0,8.775703887
147,X32,1,8.690137586
147,X33,0,9.753013439
147,X34,0,9.227099156
147,X35,0,8.936824155
147,X36,1,8.813587204
147,X37,1,8.983063289
147,X38,1,9.42238253
147,X39,0,8.227642708
147,X40,0,8.711937268
148,X1,1,8.465689349
148,X2,0,8.257904193
148,X3,1,8.165079259
148,X4,0,8.120588712
148,X5,0,8.233237501
148,X6,1,7.983781069
148,X7,0,7.853216388
148,X8,0,8.124150603
148,X9,1,8.331345425
148,X10,0,8.248790734
148,X11,1,8.67573422
148,X12,1,8.538367427
148,X13,1,7.894318064
148,X14,1,7.820037989
148,X15,0,9.153664195
148,X16,1,10.13265294
148,X17,1,8.119696253
148,X18,0,7.291656209
148,X19,0,8.857230494
148,X20,1,8.35396813
148,X21,0,8.364275085
148,X22,1,8.445482344
148,X23,0,7.65349491
148,X24,0,7.722677516
148,X25,1,8.117014088
148,X26,1,7.766840537
148,X27,0,8.198089249
148,X28,1,8.181720455
148,X29,1,7.159291905
148,X30,0,7.824046011
148,X31,0,7.359467638
148,X32,1,10.00414704
148,X33,1,8.572438666
148,X34,0,8.402679805
148,X35,1,8.400209836
148,X36,1,8.15536212
148,X37,0,7.89319887
148,X38,0,8.322394113
148,X39,1,8.216628493
148,X40,1,8.153925132
149,X1,0,9.088624613
149,X2,0,8.820847033
149,X3,1,8.596928159
149,X4,0,8.825265954
149,X5,1,8.570733958
149,X6,1,8.103191752
149,X7,1,7.817222786
149,X8,0,8.145549632
149,X9,0,7.97831097
149,X10,1,8.066835314
149,X11,1,8.591558273
149,X12,1,8.429235913
149,X13,0,7.636269603
149,X14,1,8.26436333
149,X15,0,8.459564079
149,X16,0,8.41294317
149,X17,1,9.268703615
149,X18,1,7.7419679
149,X19,1,8.815666825
149,X20,0,8.499029221
149,X21,1,8.65608519
149,X22,1,9.973340054
149,X23,0,8.43923165
149,X24,1,8.047189562
149,X25,0,8.002359546
149,X26,0,8.298788394
149,X27,0,8.646113971
149,X28,0,8.316300249
149,X29,0,7.667158255
149,X30,1,9.161465204
149,X31,0,7.3524411
149,X32,1,7.892825526
149,X33,1,8.601350499
149,X34,0,9.30164253
149,X35,0,8.369388997
149,X36,1,8.820404065
149,X37,1,8.277920258
149,X38,0,8.664060267
149,X39,1,7.768110379
149,X40,0,7.254177846
150,X1,0,8.54907938
150,X2,1,7.880804345
150,X3,0,8.996280439
150,X4,1,7.941651253
150,X5,0,7.880804345
150,X6,0,7.801800402
150,X7,0,8.587838031
150,X8,1,8.542275972
150,X9,0,8.726967775
150,X10,1,7.961021466
150,X11,1,7.782390336
150,X12,0,7.609366538
150,X13,1,7.96241568
150,X14,0,7.877397186
150,X15,1,8.26821888
150,X16,0,7.321849714
150,X17,0,7.964155719
150,X18,0,7.944846711
150,X19,1,7.493317249
150,X20,1,8.586532669
150,X21,0,7.765144903
150,X22,1,7.661997559
150,X23,0,8.224163513
150,X24,0,8.815221556
150,X25,1,8.893709978
150,X26,1,7.6989362
150,X27,0,8.190631681
150,X28,0,7.885329239
150,X29,1,8.344267356
150,X30,1,7.842671475
150,X31,1,7.987864096
150,X32,0,7.933079772
150,X33,1,8.146419323
150,X34,1,8.516593011
150,X35,0,8.037220031
150,X36,1,8.137688185
150,X37,0,9.698674958
150,X38,1,8.423102268
150,X39,1,8.367532417
150,X40,0,8.42398081
151,X1,1,8.401333305
151,X2,1,8.697679732
151,X3,1,8.142354277
151,X4,0,7.814803429
151,X5,1,8.375629627
151,X6,1,8.028781162
151,X7,1,7.72841578
151,X8,1,7.913155186
151,X9,0,8.556029215
151,X10,1,7.727975542
151,X11,0,7.942362238
151,X12,0,8.14815644
151,X13,1,8.175266104
151,X14,1,10.59177293
151,X15,1,9.550662332
151,X16,1,7.412160335
151,X17,0,8.421342866
151,X18,1,7.542213463
151,X19,0,8.34640487
151,X20,1,7.748028524
151,X21,1,8.161089513
151,X22,1,8.609772373
151,X23,0,7.21964204
151,X24,1,7.704811923
151,X25,1,8.000684785
151,X26,0,8.307459327
151,X27,1,7.604396349
151,X28,1,8.151909873
151,X29,1,7.52131798
151,X30,1,7.70391021
151,X31,0,8.929037906
151,X32,1,8.801619971
151,X33,1,7.713784617
151,X34,1,8.341410211
151,X35,0,8.147288259
151,X36,1,7.749322465
151,X37,1,7.362010551
151,X38,0,8.448914351
151,X39,1,8.269244521
151,X40,0,10.40210901
152,X1,0,8.928905412
152,X2,1,8.255828427
152,X3,1,8.424200325
152,X4,1,8.064321961
152,X5,1,8.24170316
152,X6,1,8.29304914
152,X7,1,8.153637486
152,X8,0,9.474088294
152,X9,1,8.23110984
152,X10,1,8.893160829
152,X11,1,8.243545508
152,X12,1,9.014325488
152,X13,0,8.508152447
152,X14,1,8.284756593
152,X15,1,8.579792333
152,X16,0,8.196436811
152,X17,1,8.29304914
152,X18,0,8.127699853
152,X19,1,7.44132039
152,X20,0,8.569216219
152,X21,1,8.562740006
152,X22,1,8.589699882
152,X23,0,8.02289687
152,X24,0,7.589841512
152,X25,0,8.461469043
152,X26,1,7.781973234
152,X27,0,7.969357742
152,X28,1,8.094378445
152,X29,0,8.464214267
152,X30,1,9.162829389
152,X31,0,8.226305988
152,X32,0,8.260751355
152,X33,0,8.028781162
152,X34,0,7.958227192
152,X35,1,8.488587934
152,X36,1,8.427487278
152,X37,0,8.028781162
152,X38,1,8.482187582
152,X39,0,8.180600948
152,X40,0,8.543055851
153,X1,1,8.662850764
153,X2,1,8.635687085
153,X3,1,8.25997566
153,X4,1,8.773229786
153,X5,0,8.007367068
153,X6,1,8.396154863
153,X7,1,7.908754739
153,X8,1,8.371936179
153,X9,1,8.429235913
153,X10,1,8.471986599
153,X11,0,8.098642844
153,X12,1,8.275885669
153,X13,0,8.611411867
153,X14,1,8.14612951
153,X15,0,7.901747519
153,X16,0,8.049107721
153,X17,0,9.443117372
153,X18,1,7.833203949
153,X19,0,8.321178307
153,X20,0,8.57508467
153,X21,1,8.873608102
153,X22,1,8.350902452
153,X23,0,9.555135024
153,X24,1,8.52337405
153,X25,1,8.327484416
153,X26,0,8.331345425
153,X27,1,9.235715678
153,X28,1,8.772300418
153,X29,0,7.821643126
153,X30,1,8.409385239
153,X31,1,8.833462721
153,X32,0,8.576970395
153,X33,0,8.302761581
153,X34,1,7.930565854
153,X35,0,8.587838031
153,X36,0,8.27512163
153,X37,0,7.657282793
153,X38,1,8.24957515
153,X39,0,9.052867513
153,X40,1,8.466951975
154,X1,0,9.524786082
154,X2,1,8.487764381
154,X3,0,8.432506383
154,X4,0,8.137980454
154,X5,0,8.019612794
154,X6,0,8.177515824
154,X7,1,8.483429561
154,X8,1,7.757906208
154,X9,0,8.173293439
154,X10,1,8.698847859
154,X11,0,7.859799181
154,X12,1,8.098034756
154,X13,1,8.339978572
154,X14,0,7.816819966
154,X15,1,8.222553638
154,X16,0,9.253591414
154,X17,1,8.08085642
154,X18,1,8.029432841
154,X19,0,8.13270649
154,X20,1,7.926241523
154,X21,0,8.090708716
154,X22,0,7.988203597
154,X23,0,7.920446505
154,X24,0,8.011686729
154,X25,0,11.18023208
154,X26,0,7.914617709
154,X27,1,8.032360148
154,X28,1,7.774855767
154,X29,1,8.164794804
154,X30,0,8.14612951
154,X31,0,8.001019961
154,X32,1,8.200837258
154,X33,0,8.645938147
154,X34,1,8.340217321
154,X35,0,8.278428259
154,X36,1,7.619724214
154,X37,0,8.114623886
154,X38,0,7.953318347
154,X39,1,7.631916513
154,X40,0,7.98616486
155,X1,1,9.293945956
155,X2,1,9.29761838
155,X3,0,9.296242801
155,X4,0,9.446518602
155,X5,1,8.549466752
155,X6,1,9.58169701
155,X7,0,9.149953222
155,X8,1,9.128370809
155,X9,1,9.070733418
155,X10,0,8.957124136
155,X11,0,9.188094763
155,X12,1,8.78431535
155,X13,1,9.582937876
155,X14,0,9.257414779
155,X15,1,8.565411764
155,X16,0,10.74108134
155,X17,1,8.801920904
155,X18,1,9.648337205
155,X19,1,8.60886038
155,X20,0,9.176059438
155,X21,1,8.978408315
155,X22,0,9.883998876
155,X23,1,8.533263372
155,X24,1,8.750524669
155,X25,0,9.403519439
155,X26,1,8.574895902
155,X27,1,8.51318517
155,X28,1,8.465268119
155,X29,1,8.317521996
155,X30,1,8.549273085
155,X31,0,8.552753367
155,X32,0,9.518927405
155,X33,1,9.748644967
155,X34,1,9.158731238
155,X35,1,8.876823763
155,X36,1,8.154787573
155,X37,0,8.841158976
155,X38,0,8.865029187
155,X39,1,9.245997049
155,X40,0,8.305731145
156,X1,1,8.854379459
156,X2,1,8.558143178
156,X3,0,8.765926514
156,X4,1,9.177610547
156,X5,0,9.137769679
156,X6,1,9.792723576
156,X7,0,8.886685639
156,X8,1,10.00387573
156,X9,1,7.614805365
156,X10,0,8.431853144
156,X11,0,9.196038587
156,X12,1,9.849981285
156,X13,0,8.39208338
156,X14,0,8.217438538
156,X15,1,8.604287898
156,X16,1,9.244548543
156,X17,0,8.948585922
156,X18,0,9.608042089
156,X19,0,9.753071557
156,X20,0,10.08267922
156,X21,1,10.01476055
156,X22,0,8.909505513
156,X23,0,8.464003363
156,X24,1,8.635509418
156,X25,1,8.483843212
156,X26,1,8.3918567
156,X27,0,8.426611813
156,X28,0,9.425854896
156,X29,1,9.989435865
156,X30,0,8.18729927
156,X31,0,8.532278829
156,X32,0,8.51218065
156,X33,0,9.797237753
156,X34,1,8.597297436
156,X35,0,7.463363046
156,X36,0,7.998335396
156,X37,0,8.704004653
156,X38,1,9.563107691
156,X39,0,8.219864742
156,X40,0,7.856706793
157,X1,1,9.262458326
157,X2,0,8.464214267
157,X3,1,8.902999662
157,X4,0,8.672314828
157,X5,0,8.789050714
157,X6,1,9.044875932
157,X7,1,8.406708458
157,X8,1,8.587092319
157,X9,1,8.749890956
157,X10,1,8.660947155
157,X11,0,8.993303139
157,X12,1,8.813289762
157,X13,0,8.65538869
157,X14,0,8.423102268
157,X15,0,9.204624065
157,X16,0,8.347353412
157,X17,1,9.026297334
157,X18,0,8.478868077
157,X19,1,9.175024027
157,X20,1,8.782783017
157,X21,1,8.746398334
157,X22,1,8.349484347
157,X23,1,10.31377435
157,X24,1,7.954372273
157,X25,1,8.094683649
157,X26,0,8.035602693
157,X27,1,8.244859396
157,X28,1,8.255828427
157,X29,0,9.766120241
157,X30,1,7.973155433
157,X31,0,8.320691571
157,X32,1,8.796338933
157,X33,0,8.567506005
157,X34,0,7.919719761
157,X35,1,9.020631597
157,X36,0,8.937481228
157,X37,0,8.601901919
157,X38,1,8.643120748
157,X39,0,8.153925132
157,X40,1,7.761319181
158,X1,0,9.540938245
158,X2,1,9.40722208
158,X3,0,9.290259995
158,X4,1,9.322775801
158,X5,0,9.686822967
158,X6,1,8.994172434
158,X7,1,9.263407093
158,X8,0,9.626349694
158,X9,1,9.046644279
158,X10,1,9.258749511
158,X11,1,9.410092464
158,X12,0,8.491875383
158,X13,0,9.029297997
158,X14,1,8.682199026
158,X15,1,8.823500728
158,X16,1,8.609042845
158,X17,1,8.525161361
158,X18,0,8.767640577
158,X19,1,9.750219816
158,X20,1,9.659886159
158,X21,1,8.847072313
158,X22,1,8.89068592
158,X23,0,9.5369787
158,X24,0,9.279586545
158,X25,0,9.824877152
158,X26,0,9.587611746
158,X27,1,9.207837242
158,X28,1,9.389239412
158,X29,0,9.174402265
158,X30,1,9.07222707
158,X31,1,9.325185764
158,X32,0,9.272375763
158,X33,0,9.289983
158,X34,1,9.51679513
158,X35,0,9.346094293
158,X36,0,9.238733446
158,X37,1,9.421006402
158,X38,1,9.312084356
158,X39,1,9.144948153
158,X40,1,8.970177815
159,X1,0,9.3017338
159,X2,0,8.69064217
159,X3,1,8.695674049
159,X4,0,8.105911198
159,X5,1,7.551186867
159,X6,1,9.352881059
159,X7,1,8.880029117
159,X8,1,7.479299638
159,X9,0,7.779048645
159,X10,1,7.40731771
159,X11,0,8.65347081
159,X12,1,7.830425618
159,X13,0,7.850493181
159,X14,0,7.994632311
159,X15,0,8.736328721
159,X16,1,7.734121303
159,X17,0,8.56522116
159,X18,0,8.457867725
159,X19,1,8.731174901
159,X20,0,7.473069088
159,X21,1,7.963112059
159,X22,1,7.666221926
159,X23,1,7.410951876
159,X24,1,7.340835554
159,X25,1,8.101980732
159,X26,0,7.212294469
159,X27,1,8.486733984
159,X28,0,7.061334367
159,X29,0,9.063810579
159,X30,0,8.03657341
159,X31,1,9.074176947
159,X32,1,7.275172319
159,X33,1,7.329749689
159,X34,0,8.20028826
159,X35,1,8.193676666
159,X36,1,7.859799181
159,X37,1,8.060540047
159,X38,0,8.108021221
159,X39,0,7.643482907
159,X40,0,7.889084407
160,X1,1,9.676398729
160,X2,1,8.903135633
160,X3,0,9.856553165
160,X4,0,9.552723675
160,X5,1,12.15140524
160,X6,1,9.457356688
160,X7,0,8.95828281
160,X8,1,9.55251063
160,X9,0,9.018089684
160,X10,1,8.934982049
160,X11,1,8.357962966
160,X12,1,10.75462091
160,X13,0,9.009691898
160,X14,0,9.201501423
160,X15,0,8.028129059
160,X16,1,8.871224644
160,X17,0,9.143559338
160,X18,1,9.510963349
160,X19,1,9.718723014
160,X20,0,9.353401215
160,X21,1,8.599510234
160,X22,1,8.536211197
160,X23,1,8.430327258
160,X24,1,9.209439967
160,X25,1,9.407468436
160,X26,1,8.168486417
160,X27,0,9.231024963
160,X28,1,8.615589513
160,X29,1,9.331938344
160,X30,0,9.518486618
160,X31,0,8.227909838
160,X32,1,8.359837381
160,X33,1,9.52966645
160,X34,1,8.859363449
160,X35,1,8.531293316
160,X36,1,7.784889296
160,X37,1,9.331584079
160,X38,0,9.275003885
160,X39,0,9.374752508
160,X40,0,9.258082368
161,X1,1,8.942068693
161,X2,0,8.983565234
161,X3,0,8.483222672
161,X4,0,8.954673629
161,X5,1,8.671115274
161,X6,1,8.596189198
161,X7,0,8.720460513
161,X8,0,8.348064228
161,X9,0,8.501267041
161,X10,1,8.850517622
161,X11,0,8.865029187
161,X12,1,8.374938144
161,X13,0,8.815073089
161,X14,0,8.493515064
161,X15,1,9.18584274
161,X16,0,8.068402959
161,X17,0,8.820404065
161,X18,1,8.457018468
161,X19,0,8.839421608
161,X20,0,8.607947555
161,X21,1,8.449984442
161,X22,1,8.58876939
161,X23,1,8.336630088
161,X24,0,8.346879254
161,X25,0,8.665785595
161,X26,0,8.383890344
161,X27,1,8.982937764
161,X28,1,8.960082528
161,X29,1,8.778941882
161,X30,1,8.990067696
161,X31,0,7.734121303
161,X32,0,8.29404964
161,X33,0,8.184234774
161,X34,1,8.309676896
161,X35,0,8.243282523
161,X36,0,8.50471567
161,X37,1,8.250358951
161,X38,1,8.405591015
161,X39,1,8.041734711
161,X40,0,8.25426877
162,X1,0,9.247539813
162,X2,1,8.881002624
162,X3,1,9.417435839
162,X4,1,9.058470423
162,X5,0,8.873888135
162,X6,1,8.415160466
162,X7,1,9.488502271
162,X8,0,8.751949058
162,X9,0,7.73587032
162,X10,1,8.13270649
162,X11,0,9.536329279
162,X12,0,9.117237754
162,X13,0,9.221379219
162,X14,1,8.857799727
162,X15,0,9.05450494
162,X16,1,8.135932772
162,X17,0,9.928960349
162,X18,0,8.292798858
162,X19,1,9.134646528
162,X20,0,8.283746747
162,X21,1,9.006386515
162,X22,0,9.205930663
162,X23,1,7.857480787
162,X24,0,8.767017621
162,X25,0,8.769196271
162,X26,0,8.466741648
162,X27,0,8.696677393
162,X28,1,8.631414336
162,X29,1,8.596004372
162,X30,0,9.399554785
162,X31,1,8.108924156
162,X32,0,8.377471248
162,X33,1,8.489205155
162,X34,0,8.618485443
162,X35,1,8.321907968
162,X36,0,8.809116258
162,X37,1,8.693999568
162,X38,0,8.373091847
162,X39,1,8.244596756
162,X40,1,8.782629655
163,X1,1,9.638088688
163,X2,1,8.250881145
163,X3,1,8.789812386
163,X4,1,9.752606522
163,X5,0,8.083019919
163,X6,0,8.981052986
163,X7,1,8.610136937
163,X8,0,8.695339377
163,X9,0,8.319473692
163,X10,1,8.016647877
163,X11,0,8.055475142
163,X12,0,8.334951631
163,X13,0,8.766394277
163,X14,0,8.739856627
163,X15,0,7.902117546
163,X16,1,8.410720947
163,X17,1,7.786136438
163,X18,1,5.686975356
163,X19,1,8.566935283
163,X20,0,8.681859813
163,X21,0,8.383661799
163,X22,0,8.553139318
163,X23,0,8.340694648
163,X24,0,7.869019376
163,X25,0,8.179480185
163,X26,0,8.72955887
163,X27,0,8.163656176
163,X28,0,8.57753542
163,X29,0,9.606091788
163,X30,0,8.394573478
163,X31,1,8.655737001
163,X32,1,8.174984533
163,X33,0,8.554681636
163,X34,0,8.097730574
163,X35,1,8.40178234
163,X36,0,8.508959386
163,X37,0,8.42485858
163,X38,0,8.014004995
163,X39,1,8.309676896
163,X40,0,7.992606652
164,X1,0,8.857515151
164,X2,1,8.782936356
164,X3,1,8.235890726
164,X4,1,8.68440111
164,X5,0,9.411728991
164,X6,1,7.874739125
164,X7,0,8.10832229
164,X8,1,7.912423121
164,X9,1,7.938088727
164,X10,1,8.092851028
164,X11,1,7.752335163
164,X12,0,8.365672384
164,X13,0,8.675222056
164,X14,0,8.545391846
164,X15,1,8.686598356
164,X16,1,8.031385331
164,X17,1,7.886081402
164,X18,0,7.848543482
164,X19,0,8.302513719
164,X20,0,7.985484357
164,X21,0,8.073402969
164,X22,0,7.407924323
164,X23,0,7.507690078
164,X24,0,7.756195344
164,X25,1,8.254008591
164,X26,0,7.726212651
164,X27,1,7.876638461
164,X28,1,8.581294117
164,X29,1,7.994969523
164,X30,0,7.860185057
164,X31,0,8.037866235
164,X32,0,7.694848072
164,X33,1,7.852439085
164,X34,1,7.900636613
164,X35,1,7.92732436
164,X36,0,7.605890001
164,X37,0,7.385230923
164,X38,1,7.919719761
164,X39,1,7.374629015
164,X40,0,7.792761721
165,X1,0,8.23110984
165,X2,1,8.840001066
165,X3,1,8.576027977
165,X4,1,8.270525095
165,X5,0,8.71604405
165,X6,0,8.356085031
165,X7,0,8.263590433
165,X8,0,8.618485443
165,X9,0,8.027476531
165,X10,0,7.89469085
165,X11,1,8.681011277
165,X12,0,8.338305731
165,X13,0,9.025816392
165,X14,0,8.321421587
165,X15,0,8.357962966
165,X16,0,7.988203597
165,X17,1,8.56674497
165,X18,1,8.051340933
165,X19,0,8.634086943
165,X20,1,8.14815644
165,X21,0,8.010027528
165,X22,1,7.866722285
165,X23,0,8.591001119
165,X24,1,7.954372273
165,X25,0,8.267962305
165,X26,0,8.043984431
165,X27,1,7.725771442
165,X28,0,8.131530711
165,X29,1,7.87359779
165,X30,0,7.781973234
165,X31,1,7.770223204
165,X32,1,7.263329617
165,X33,1,8.774312958
165,X34,0,7.9686657
165,X35,1,7.943427768
165,X36,1,7.988203597
165,X37,0,7.851661178
165,X38,1,7.932003152
165,X39,1,8.157370441
165,X40,0,8.236155662
166,X1,1,9.44951474
166,X2,1,8.685922795
166,X3,1,8.033982735
166,X4,1,7.939871576
166,X5,1,8.039479919
166,X6,0,8.686429509
166,X7,0,8.497806478
166,X8,0,8.495969555
166,X9,1,8.410720947
166,X10,1,8.567315801
166,X11,0,8.185907481
166,X12,1,7.656810091
166,X13,0,7.881937489
166,X14,0,7.979338895
166,X15,1,7.919356191
166,X16,0,8.078378104
166,X17,1,7.762596049
166,X18,0,7.368339686
166,X19,0,8.556221578
166,X20,1,7.33171497
166,X21,1,8.567506005
166,X22,1,8.636219898
166,X23,1,8.394573478
166,X24,1,7.917536354
166,X25,1,8.174139343
166,X26,0,7.869783903
166,X27,0,8.048468744
166,X28,1,7.636269603
166,X29,1,7.790696031
166,X30,1,7.765993079
166,X31,0,8.117014088
166,X32,0,7.835579247
166,X33,0,7.304515946
166,X34,1,7.547501683
166,X35,1,7.562681247
166,X36,0,7.841492924
166,X37,1,7.763021309
166,X38,1,7.444248649
166,X39,1,9.104979856
166,X40,1,8.48115142
167,X1,1,10.22842928
167,X2,1,8.542080907
167,X3,1,8.311398278
167,X4,1,8.546751994
167,X5,1,8.900276349
167,X6,1,8.387084506
167,X7,1,9.11195547
167,X8,0,8.807771067
167,X9,0,8.452334619
167,X10,1,8.428143375
167,X11,0,9.204523487
167,X12,1,8.605570302
167,X13,0,9.070503427
167,X14,0,8.123854263
167,X15,1,8.240121298
167,X16,1,8.196987927
167,X17,0,8.092545264
167,X18,0,7.709756864
167,X19,1,8.552946361
167,X20,1,8.882808055
167,X21,1,8.614501374
167,X22,0,8.416046009
167,X23,0,8.262816938
167,X24,1,8.749732464
167,X25,0,9.027138428
167,X26,0,9.058354015
167,X27,0,8.227375507
167,X28,1,8.151909873
167,X29,1,8.820847033
167,X30,0,7.883823215
167,X31,1,7.95927596
167,X32,0,8.372398607
167,X33,1,8.930361884
167,X34,0,8.323122888
167,X35,1,8.301769763
167,X36,0,8.580543507
167,X37,1,8.273336599
167,X38,0,8.468002947
167,X39,1,8.588024372
167,X40,0,8.289539485
168,X1,0,8.867427439
168,X2,1,8.37262974
168,X3,1,8.152774053
168,X4,1,7.590852124
168,X5,1,8.89123643
168,X6,1,8.374707543
168,X7,0,8.814181823
168,X8,1,8.643825842
168,X9,1,9.418492105
168,X10,0,8.256347773
168,X11,0,8.350193651
168,X12,1,8.220941168
168,X13,0,8.713417653
168,X14,1,8.675563527
168,X15,0,8.464846711
168,X16,1,8.066207568
168,X17,1,8.028129059
168,X18,1,7.833203949
168,X19,0,7.915713199
168,X20,1,8.332789468
168,X21,1,8.231376046
168,X22,0,7.880804345
168,X23,1,7.553286606
168,X24,0,8.604654467
168,X25,0,8.613775289
168,X26,0,8.526747404
168,X27,1,8.127109185
168,X28,1,8.109826276
168,X29,1,8.324578845
168,X30,1,8.857657449
168,X31,0,7.882692206
168,X32,1,8.464003363
168,X33,1,8.00836557
168,X34,0,8.454466362
168,X35,1,8.663714844
168,X36,1,8.194229305
168,X37,0,8.29404964
168,X38,1,8.195609567
168,X39,0,7.958576904
168,X40,0,8.083328609
169,X1,1,8.779403598
169,X2,0,8.231908244
169,X3,0,8.592115118
169,X4,0,8.890410552
169,X5,1,8.699348068
169,X6,0,8.266935348
169,X7,0,8.124150603
169,X8,0,8.525558108
169,X9,1,8.544419178
169,X10,1,8.573951525
169,X11,1,8.588210679
169,X12,1,8.70632484
169,X13,1,8.487970333
169,X14,1,8.35678967
169,X15,0,8.117908942
169,X16,1,8.386628821
169,X17,1,8.49023301
169,X18,0,8.249836485
169,X19,1,8.746080217
169,X20,0,7.94944442
169,X21,1,8.527341522
169,X22,1,8.077447149
169,X23,1,8.319229939
169,X24,0,8.047509511
169,X25,0,9.089527752
169,X26,0,8.053251154
169,X27,0,7.726653665
169,X28,0,7.940227765
169,X29,0,8.571113033
169,X30,0,8.272059622
169,X31,0,8.161945799
169,X32,1,9.096947685
169,X33,0,8.512984347
169,X34,0,8.158802491
169,X35,0,8.425735581
169,X36,1,8.374246182
169,X37,0,7.798112629
169,X38,0,8.631057448
169,X39,0,8.019941688
169,X40,1,8.252967195
170,X1,1,9.290536914
170,X2,0,8.286269453
170,X3,1,8.130353547
170,X4,1,8.506738734
170,X5,0,8.638348313
170,X6,0,7.601402335
170,X7,1,9.478839625
170,X8,1,7.617267814
170,X9,0,8.341648619
170,X10,0,8.092545264
170,X11,0,7.374001859
170,X12,0,8.278936002
170,X13,1,8.363575703
170,X14,1,7.541152455
170,X15,0,9.505990614
170,X16,0,7.835183755
170,X17,0,8.783242964
170,X18,1,7.557472902
170,X19,0,8.747510946
170,X20,1,8.114025442
170,X21,0,9.169205829
170,X22,1,7.937374696
170,X23,0,8.890961213
170,X24,1,8.035278911
170,X25,0,8.602269364
170,X26,0,9.219101878
170,X27,1,7.964850887
170,X28,0,7.826044014
170,X29,0,7.783640596
170,X30,0,7.707512195
170,X31,1,7.192182059
170,X32,0,9.576995349
170,X33,1,7.87245515
170,X34,1,8.165932137
170,X35,0,8.727129915
170,X36,1,8.239593454
170,X37,1,8.251142139
170,X38,0,8.543445563
170,X39,0,8.145549632
170,X40,0,7.458186157
171,X1,1,8.862625169
171,X2,1,9.755219536
171,X3,1,9.243678432
171,X4,1,8.467372496
171,X5,0,9.459619397
171,X6,1,9.062420242
171,X7,1,9.079662048
171,X8,1,8.573762543
171,X9,1,9.192278229
171,X10,0,9.341631758
171,X11,1,9.033483855
171,X12,1,8.386400901
171,X13,0,9.369137384
171,X14,1,8.443546651
171,X15,0,9.356948392
171,X16,0,8.868694777
171,X17,1,8.732143268
171,X18,1,8.734721004
171,X19,1,9.369478593
171,X20,1,9.432283203
171,X21,0,10.29711622
171,X22,0,8.265392931
171,X23,0,8.473241304
171,X24,0,7.948738455
171,X25,0,8.35819746
171,X26,0,8.120588712
171,X27,0,8.252967195
171,X28,0,8.247220053
171,X29,0,8.409385239
171,X30,0,9.716495104
171,X31,0,8.089789176
171,X32,1,8.64453044
171,X33,1,8.084254106
171,X34,0,8.289790583
171,X35,0,8.195609567
171,X36,0,8.174421153
171,X37,1,7.80588204
171,X38,1,8.538758969
171,X39,1,9.103534368
171,X40,0,8.896040502
172,X1,1,9.673696959
172,X2,0,8.850804196
172,X3,1,9.106090351
172,X4,1,9.256269304
172,X5,0,9.654577375
172,X6,1,8.69282576
172,X7,0,8.996775795
172,X8,1,8.823795149
172,X9,1,9.801786998
172,X10,1,8.463370385
172,X11,1,8.905986765
172,X12,0,8.814181823
172,X13,0,8.856660937
172,X14,0,9.115480091
172,X15,0,8.135346949
172,X16,0,9.29090602
172,X17,0,8.587092319
172,X18,1,8.245384468
172,X19,1,8.888618807
172,X20,1,8.638171118
172,X21,0,8.964184046
172,X22,0,8.935640334
172,X23,0,8.759354749
172,X24,1,8.852664928
172,X25,0,9.528866828
172,X26,1,8.091321274
172,X27,1,8.681181042
172,X28,0,8.842026529
172,X29,1,8.940629185
172,X30,1,8.645410489
172,X31,0,8.938006576
172,X32,0,7.971430998
172,X33,1,8.886685639
172,X34,0,9.346792495
172,X35,0,9.325364049
172,X36,0,8.822322177
172,X37,0,8.999248902
172,X38,1,9.266342562
172,X39,0,9.182969175
172,X40,0,8.367996885
173,X1,0,9.886544832
173,X2,1,9.82568816
173,X3,0,9.937744041
173,X4,1,8.806124483
173,X5,0,9.34940642
173,X6,1,9.310728546
173,X7,0,9.979197812
173,X8,0,9.652201695
173,X9,0,9.323401164
173,X10,0,9.447229025
173,X11,0,9.792500124
173,X12,1,9.523543982
173,X13,0,9.44943601
173,X14,1,9.499646126
173,X15,0,9.74957851
173,X16,1,9.103200496
173,X17,0,9.475239882
173,X18,0,9.662625451
173,X19,0,9.192990734
173,X20,0,9.491375402
173,X21,1,9.839588827
173,X22,0,9.215128889
173,X23,0,9.16356318
173,X24,0,8.565030521
173,X25,0,9.887713798
173,X26,1,9.412709624
173,X27,0,9.507923269
173,X28,1,9.302372457
173,X29,0,9.261033486
173,X30,1,9.197052478
173,X31,1,8.559294367
173,X32,0,9.085003881
173,X33,0,9.119868469
173,X34,1,8.352554369
173,X35,1,8.561401446
173,X36,0,8.843037725
173,X37,0,8.491875383
173,X38,1,9.116908427
173,X39,1,8.784621535
173,X40,1,8.773848885
174,X1,1,10.62527078
174,X2,1,8.541885804
174,X3,0,8.426392827
174,X4,1,8.915432254
174,X5,1,9.653871681
174,X6,1,8.057377489
174,X7,1,8.574329383
174,X8,0,9.084096645
174,X9,0,8.627302414
174,X10,1,7.916078096
174,X11,1,8.196987927
174,X12,0,8.279443488
174,X13,1,8.47428569
174,X14,0,8.077757564
174,X15,1,9.226016851
174,X16,1,7.695303135
174,X17,1,8.000349495
174,X18,1,8.065579427
174,X19,0,9.136155474
174,X20,0,8.637284672
174,X21,1,8.465689349
174,X22,1,8.0522965
174,X23,1,8.500657223
174,X24,1,8.381602537
174,X25,1,7.981391582
174,X26,1,7.877776333
174,X27,0,8.763740721
174,X28,1,8.592115118
174,X29,1,8.000349495
174,X30,0,8.330863613
174,X31,1,7.984462732
174,X32,0,8.199189359
174,X33,0,8.188133415
174,X34,0,9.060214913
174,X35,1,8.682877107
174,X36,1,8.165647925
174,X37,0,8.29953457
174,X38,1,7.591861715
174,X39,1,9.985113621
174,X40,0,9.219696467
175,X1,1,8.745602852
175,X2,1,8.661466681
175,X3,1,8.670943791
175,X4,0,8.350429974
175,X5,0,8.60043079
175,X6,1,8.178919333
175,X7,1,8.115520882
175,X8,0,7.399398083
175,X9,1,9.00307017
175,X10,1,8.370779173
175,X11,1,10.0251298
175,X12,0,8.866863661
175,X13,1,8.493719835
175,X14,0,10.52693626
175,X15,0,8.083637203
175,X16,1,10.95038541
175,X17,0,8.365206834
175,X18,1,7.985143931
175,X19,1,9.111845125
175,X20,0,8.959568654
175,X21,1,8.310414994
175,X22,1,8.095293777
175,X23,1,10.30061802
175,X24,1,8.939187601
175,X25,0,7.609862201
175,X26,1,9.541728277
175,X27,0,10.46854565
175,X28,1,7.599901959
175,X29,1,7.945909599
175,X30,0,8.419800845
175,X31,0,8.224163513
175,X32,1,7.735433352
175,X33,1,7.899524472
175,X34,1,8.731174901
175,X35,1,10.57546217
175,X36,1,10.48040986
175,X37,0,8.23483028
175,X38,0,7.850103545
175,X39,1,7.705712824
175,X40,1,8.240648863
176,X1,1,8.754791764
176,X2,0,8.374246182
176,X3,1,7.815207062
176,X4,0,8.065265209
176,X5,1,9.265396578
176,X6,1,8.330863613
176,X7,1,8.845921233
176,X8,1,8.748622322
176,X9,1,7.868636894
176,X10,0,8.524764457
176,X11,1,8.070280893
176,X12,1,7.802209316
176,X13,1,8.455955882
176,X14,1,7.254177846
176,X15,0,7.567345676
176,X16,1,8.35396813
176,X17,0,7.745002804
176,X18,1,8.117014088
176,X19,1,8.216628493
176,X20,0,7.680637428
176,X21,0,8.078067882
176,X22,0,7.837554361
176,X23,1,8.039802344
176,X24,0,7.862882035
176,X25,0,8.072779333
176,X26,1,8.013674143
176,X27,1,7.680637428
176,X28,1,8.7761671
176,X29,0,7.559559496
176,X30,1,7.314552832
176,X31,0,7.70210434
176,X32,0,8.158802491
176,X33,0,8.361474616
176,X34,1,7.5416831
176,X35,1,8.216628493
176,X36,0,9.156728603
176,X37,1,8.161089513
176,X38,1,7.72753511
176,X39,1,8.192570471
176,X40,0,7.583756301
177,X1,1,8.850374304
177,X2,0,7.703007682
177,X3,1,7.875119281
177,X4,1,7.688913337
177,X5,0,7.793586803
177,X6,0,8.324093761
177,X7,1,7.964155719
177,X8,0,7.789454566
177,X9,1,7.81197343
177,X10,1,8.159088655
177,X11,0,7.129297549
177,X12,0,7.492203043
177,X13,0,8.364042012
177,X14,1,7.436617265
177,X15,1,7.837554361
177,X16,0,8.823647949
177,X17,0,7.981733287
177,X18,0,7.893945138
177,X19,1,7.342131731
177,X20,1,7.72753511
177,X21,1,7.604396349
177,X22,0,7.183870715
177,X23,1,7.63336965
177,X24,1,7.828436359
177,X25,1,8.446770727
177,X26,0,8.018954683
177,X27,1,7.693025748
177,X28,0,7.377133713
177,X29,0,7.743269701
177,X30,1,8.213110698
177,X31,1,7.493873887
177,X32,0,7.012115294
177,X33,0,7.669961995
177,X34,0,7.421177529
177,X35,0,7.780303088
177,X36,1,7.629975707
177,X37,1,7.795234929
177,X38,1,8.292798858
177,X39,0,7.860185057
177,X40,1,7.54538975
178,X1,1,8.816260209
178,X2,0,8.188689124
178,X3,0,7.804659297
178,X4,1,8.031385331
178,X5,1,7.946617563
178,X6,0,7.717796211
178,X7,0,7.607878073
178,X8,0,7.83715965
178,X9,1,7.474204806
178,X10,1,7.257002707
178,X11,0,7.469654173
178,X12,0,7.651120176
178,X13,1,7.266827348
178,X14,0,7.195937226
178,X15,1,8.761393485
178,X16,1,7.14440718
178,X17,0,7.126890809
178,X18,0,7.207859871
178,X19,1,7.43366654
178,X20,0,7.398174093
178,X21,1,7.864804003
178,X22,1,7.232010332
178,X23,1,7.134890852
178,X24,1,7.084226422
178,X25,0,7.036148494
178,X26,1,7.455876687
178,X27,1,7.089243155
178,X28,1,7.019296654
178,X29,1,6.981934677
178,X30,0,6.925595197
178,X31,0,7.502738211
178,X32,0,7.165493475
178,X33,0,7.104144093
178,X34,0,8.647168268
178,X35,0,7.057036982
178,X36,0,6.985641818
178,X37,0,6.835184586
178,X38,1,7.00488199
178,X39,1,7.31521839
178,X40,1,7.053585727
179,X1,0,8.918248591
179,X2,0,8.626047596
179,X3,1,8.775240459
179,X4,1,8.918382505
179,X5,0,8.524962929
179,X6,1,8.534050308
179,X7,0,9.256746745
179,X8,0,9.31343833
179,X9,1,8.504918161
179,X10,0,8.230577217
179,X11,0,8.565030521
179,X12,1,8.33710913
179,X13,0,8.043984431
179,X14,1,8.92837526
179,X15,1,8.686429509
179,X16,1,8.584290935
179,X17,1,8.32651683
179,X18,1,7.941295571
179,X19,0,8.846065191
179,X20,1,8.446985296
179,X21,0,8.671972245
179,X22,0,8.536603585
179,X23,1,7.97074039
179,X24,0,7.993619995
179,X25,1,7.869783903
179,X26,0,8.737613037
179,X27,0,8.126222529
179,X28,0,8.709795058
179,X29,1,8.548691858
179,X30,1,8.850087607
179,X31,0,8.227108234
179,X32,1,8.250881145
179,X33,1,8.37609035
179,X34,0,8.48941081
179,X35,1,8.310660906
179,X36,1,8.632662441
179,X37,0,8.638171118
179,X38,0,8.42463921
179,X39,0,8.958540111
179,X40,1,8.67180091
180,X1,1,8.756052599
180,X2,1,8.854807633
180,X3,0,8.846784667
180,X4,1,8.657650544
180,X5,1,8.212297138
180,X6,0,8.647519453
180,X7,0,8.6006148
180,X8,0,8.388450316
180,X9,0,8.483429561
180,X10,1,8.097426299
180,X11,0,8.14031554
180,X12,0,7.898039691
180,X13,1,8.178077464
180,X14,1,8.343315881
180,X15,0,8.603370888
180,X16,1,8.549853974
180,X17,1,8.028781162
180,X18,0,8.398634855
180,X19,1,8.471149253
180,X20,1,8.481773246
180,X21,1,7.93701749
180,X22,1,8.349957272
180,X23,1,8.524367395
180,X24,0,8.771990437
180,X25,0,8.339500903
180,X26,1,8.167919363
180,X27,0,8.304494898
180,X28,1,8.609954671
180,X29,1,8.4147174
180,X30,1,7.844240718
180,X31,0,8.159374737
180,X32,0,8.390495538
180,X33,1,8.153061947
180,X34,1,8.170185653
180,X35,0,8.193953024
180,X36,0,8.344742754
180,X37,1,8.46019947
180,X38,0,8.425735581
180,X39,1,8.395025557
180,X40,0,8.36683531
181,X1,1,8.425954711
181,X2,1,8.715716128
181,X3,1,7.912056888
181,X4,1,8.489205155
181,X5,1,8.193123722
181,X6,1,8.965973184
181,X7,1,7.672757897
181,X8,0,7.502186487
181,X9,0,8.125926803
181,X10,1,8.049107721
181,X11,0,8.380915173
181,X12,1,8.407601515
181,X13,0,8.922391597
181,X14,0,8.000349495
181,X15,0,7.54802897
181,X16,1,7.616775809
181,X17,1,7.803435057
181,X18,0,7.512617545
181,X19,0,7.886832999
181,X20,1,8.850947452
181,X21,1,9.610122697
181,X22,1,8.272059622
181,X23,0,8.207129168
181,X24,1,7.768533301
181,X25,0,8.850947452
181,X26,1,7.795646536
181,X27,1,7.167809184
181,X28,1,8.229511119
181,X29,1,7.809541325
181,X30,1,8.164225652
181,X31,1,8.665268309
181,X32,1,7.999678579
181,X33,1,8.734881892
181,X34,0,9.28859687
181,X35,0,7.609366538
181,X36,1,8.407601515
181,X37,1,7.355001921
181,X38,1,8.043663352
181,X39,1,7.436617265
181,X40,0,7.855544678
182,X1,1,9.047939083
182,X2,1,8.95312284
182,X3,0,9.221082469
182,X4,1,9.637501738
182,X5,0,8.895903562
182,X6,1,8.902319529
182,X7,0,9.968947524
182,X8,0,9.074176947
182,X9,0,10.1222214
182,X10,0,9.165029149
182,X11,1,9.103979356
182,X12,1,10.24803425
182,X13,1,8.995288991
182,X14,1,8.428143375
182,X15,1,8.625509335
182,X16,0,8.70483391
182,X17,1,9.16805898
182,X18,0,9.560504164
182,X19,1,8.821584877
182,X20,1,9.430599768
182,X21,1,9.470856776
182,X22,1,8.792701463
182,X23,1,9.279213236
182,X24,0,9.56029277
182,X25,1,9.005773206
182,X26,1,8.295798111
182,X27,0,9.394992544
182,X28,1,9.032409163
182,X29,0,8.77183541
182,X30,0,8.153061947
182,X31,1,8.725020039
182,X32,0,8.572817095
182,X33,0,8.505323019
182,X34,0,9.178333576
182,X35,0,8.503702601
182,X36,0,9.477615635
182,X37,1,8.987071813
182,X38,1,9.319105087
182,X39,1,9.042158379
182,X40,1,9.785323194
183,X1,0,9.320718279
183,X2,0,8.189522111
183,X3,0,8.585599224
183,X4,1,8.562931083
183,X5,0,8.280711076
183,X6,0,9.308011399
183,X7,1,8.92038906
183,X8,1,8.470101584
183,X9,0,8.33854488
183,X10,0,8.349247801
183,X11,0,8.562166557
183,X12,0,8.804925263
183,X13,0,9.222466552
183,X14,1,8.518592212
183,X15,0,8.830981511
183,X16,1,8.991064332
183,X17,1,8.915029272
183,X18,0,8.365905077
183,X19,1,8.458079927
183,X20,0,8.672143551
183,X21,1,8.205218426
183,X22,0,10.48408175
183,X23,0,8.379539026
183,X24,0,8.518791913
183,X25,1,8.350902452
183,X26,1,8.460411177
183,X27,1,8.458079927
183,X28,0,8.622813673
183,X29,1,8.297543529
183,X30,0,8.666130304
183,X31,1,8.181720455
183,X32,0,8.586719254
183,X33,1,8.3423635
183,X34,1,8.561784075
183,X35,1,8.457867725
183,X36,1,8.455530531
183,X37,1,8.689127655
183,X38,1,7.487173694
183,X39,0,8.439447843
183,X40,1,8.351138607
184,X1,0,9.159257582
184,X2,1,9.443909389
184,X3,0,9.902487052
184,X4,1,8.508555998
184,X5,0,9.541441065
184,X6,0,8.976767625
184,X7,1,9.198065341
184,X8,0,9.395906659
184,X9,0,9.314339962
184,X10,1,9.335209354
184,X11,1,9.516721522
184,X12,1,8.857941985
184,X13,1,9.539140395
184,X14,0,9.382695764
184,X15,0,9.301551252
184,X16,0,9.471087946
184,X17,1,8.819813136
184,X18,0,8.919453169
184,X19,0,9.311271091
184,X20,1,9.264070694
184,X21,1,9.040382074
184,X22,0,8.555644378
184,X23,0,9.513329688
184,X24,1,10.13285172
184,X25,0,9.742614327
184,X26,1,8.933004592
184,X27,0,8.902863672
184,X28,1,8.706821323
184,X29,1,9.357034751
184,X30,1,9.421006402
184,X31,1,9.151545325
184,X32,1,9.241257475
184,X33,1,8.511175119
184,X34,0,8.914760527
184,X35,1,9.511111409
184,X36,1,8.71505996
184,X37,0,9.060679597
184,X38,1,9.017968479
184,X39,1,9.393827915
184,X40,0,8.617762246
185,X1,1,9.291643823
185,X2,0,8.752581469
185,X3,0,8.341410211
185,X4,0,8.48941081
185,X5,1,8.398634855
185,X6,1,8.887790764
185,X7,1,8.628555659
185,X8,1,8.236685323
185,X9,1,8.8164085
185,X10,0,8.70847449
185,X11,1,8.670772279
185,X12,0,8.65608519
185,X13,0,8.455743229
185,X14,1,8.479075869
185,X15,1,8.975883061
185,X16,0,8.617762246
185,X17,1,9.3539211
185,X18,1,8.179760494
185,X19,0,10.00315188
185,X20,1,9.222071295
185,X21,0,10.35022255
185,X22,1,8.165647925
185,X23,1,8.03592637
185,X24,0,8.123854263
185,X25,1,8.499029221
185,X26,0,8.805525053
185,X27,1,7.834788107
185,X28,1,8.67573422
185,X29,0,9.266437111
185,X30,0,9.14729407
185,X31,0,8.992308733
185,X32,0,9.281357859
185,X33,1,8.827761368
185,X34,0,7.320526962
185,X35,1,9.309461463
185,X36,0,9.273972232
185,X37,0,8.988820502
185,X38,0,8.917444732
185,X39,0,9.084436955
185,X40,1,7.317876199
186,X1,1,8.664923303
186,X2,0,8.082711134
186,X3,1,7.865187954
186,X4,0,8.676416697
186,X5,0,8.337827262
186,X6,1,7.692569648
186,X7,1,7.830425618
186,X8,1,10.28000434
186,X9,1,8.318254329
186,X10,1,8.02975852
186,X11,0,8.237743804
186,X12,1,8.416930769
186,X13,0,8.250097753
186,X14,1,8.123557835
186,X15,1,11.83542917
186,X16,0,8.301025254
186,X17,1,6.941190055
186,X18,1,6.682108597
186,X19,0,7.574045005
186,X20,1,7.865571758
186,X21,1,8.050065423
186,X22,0,7.19518732
186,X23,0,6.688354714
186,X24,1,7.473637108
186,X25,0,7.980023592
186,X26,0,7.846198815
186,X27,1,11.61487718
186,X28,1,8.084870629
186,X29,1,8.982184279
186,X30,1,7.28276118
186,X31,1,7.290292882
186,X32,0,7.697121317
186,X33,0,8.111027838
186,X34,0,8.781401908
186,X35,0,8.62389281
186,X36,0,8.237214703
186,X37,0,8.892886141
186,X38,1,10.58040372
186,X39,1,7.013915475
186,X40,1,7.731053144
187,X1,0,11.82590972
187,X2,1,8.29953457
187,X3,0,8.820699399
187,X4,1,8.592486175
187,X5,1,8.951828677
187,X6,1,8.833899943
187,X7,1,8.417814747
187,X8,0,8.377701213
187,X9,1,9.381769488
187,X10,0,7.746732908
187,X11,1,8.399535148
187,X12,1,7.328437353
187,X13,0,10.56625284
187,X14,1,7.475339237
187,X15,1,8.627123251
187,X16,0,7.700747795
187,X17,1,10.6214249
187,X18,1,7.929486523
187,X19,1,7.981733287
187,X20,1,8.13973228
187,X21,0,7.231287004
187,X22,1,7.492203043
187,X23,0,8.793612072
187,X24,0,8.749890956
187,X25,0,8.160518247
187,X26,1,7.607878073
187,X27,0,10.0866421
187,X28,0,7.897296473
187,X29,1,9.653037037
187,X30,0,8.157083785
187,X31,0,7.845416037
187,X32,0,7.839131648
187,X33,1,8.260492857
187,X34,0,7.374001859
187,X35,0,8.3918567
187,X36,0,8.177515824
187,X37,0,8.285261134
187,X38,1,8.960210956
187,X39,1,8.449128461
187,X40,1,7.59739632
188,X1,1,8.805974659
188,X2,1,8.178358166
188,X3,0,8.090708716
188,X4,1,7.657282793
188,X5,0,8.169619562
188,X6,1,8.338305731
188,X7,1,7.849323818
188,X8,0,7.912423121
188,X9,1,7.622663951
188,X10,1,7.696212639
188,X11,1,7.860956365
188,X12,0,7.54009032
188,X13,0,8.635509418
188,X14,1,7.541152455
188,X15,0,7.795646536
188,X16,1,7.484930283
188,X17,0,8.385032288
188,X18,0,7.888334501
188,X19,0,7.829630389
188,X20,0,7.754910272
188,X21,1,8.054840221
188,X22,1,7.059617628
188,X23,1,8.201934351
188,X24,1,7.701652363
188,X25,1,8.305978211
188,X26,1,7.731053144
188,X27,1,7.286876412
188,X28,0,7.277938573
188,X29,0,7.861341796
188,X30,0,7.375882148
188,X31,1,7.854769183
188,X32,1,7.343426229
188,X33,1,7.13089883
188,X34,1,7.101675972
188,X35,0,7.26612878
188,X36,1,7.180831199
188,X37,1,7.353081921
188,X38,0,7.242082359
188,X39,0,7.355641103
188,X40,0,7.436617265
189,X1,0,8.699014623
189,X2,0,8.251924714
189,X3,1,7.935945103
189,X4,1,8.165363632
189,X5,0,8.215276959
189,X6,0,8.717354666
189,X7,0,7.939515261
189,X8,0,8.030409562
189,X9,0,8.224163513
189,X10,0,7.222566019
189,X11,1,8.24117615
189,X12,0,7.966933498
189,X13,1,8.234564993
189,X14,0,7.878912912
189,X15,1,8.10832229
189,X16,0,7.954723334
189,X17,1,8.242229891
189,X18,0,7.984121959
189,X19,1,7.531552381
189,X20,0,7.889084407
189,X21,1,7.899895323
189,X22,1,7.935587386
189,X23,0,7.843848638
189,X24,0,7.957177323
189,X25,0,8.146998697
189,X26,1,7.954021087
189,X27,0,7.718240952
189,X28,1,8.552367266
189,X29,1,8.551981017
189,X30,0,8.381144347
189,X31,1,7.192934221
189,X32,1,7.302496424
189,X33,1,8.199738961
189,X34,1,7.402451521
189,X35,0,7.434257382
189,X36,0,7.538494999
189,X37,0,8.333270353
189,X38,1,8.164794804
189,X39,1,7.981733287
189,X40,1,7.896180609
190,X1,1,9.208238164
190,X2,1,8.665440768
190,X3,1,8.422662708
190,X4,1,8.037220031
190,X5,1,8.686935966
190,X6,1,5.942799375
190,X7,1,8.318010278
190,X8,0,7.638198244
190,X9,0,7.641084249
190,X10,0,8.59674347
190,X11,1,7.907651595
190,X12,0,8.831565879
190,X13,1,7.946617563
190,X14,1,7.374001859
190,X15,1,8.50916102
190,X16,1,7.924795914
190,X17,1,8.703008637
190,X18,0,7.699842407
190,X19,1,7.754481547
190,X20,0,7.662467815
190,X21,1,8.220133957
190,X22,1,7.712890961
190,X23,0,7.651595574
190,X24,0,7.95927596
190,X25,0,7.964850887
190,X26,0,7.479864131
190,X27,1,7.63336965
190,X28,0,7.661056382
190,X29,1,8.465478756
190,X30,0,9.274441297
190,X31,0,8.149601736
190,X32,0,7.550661243
190,X33,1,7.588323677
190,X34,0,7.748891337
190,X35,1,8.064321961
190,X36,0,8.161945799
190,X37,1,8.157943507
190,X38,0,8.422442855
190,X39,1,8.305236829
190,X40,0,7.566828479
191,X1,1,8.686260633
191,X2,1,8.475537516
191,X3,1,8.118505068
191,X4,0,7.215239979
191,X5,0,7.971430998
191,X6,0,7.671360923
191,X7,1,8.041734711
191,X8,0,6.941190055
191,X9,0,7.855157006
191,X10,0,8.004031508
191,X11,0,7.420578905
191,X12,1,7.946971358
191,X13,0,8.14612951
191,X14,0,7.816013839
191,X15,0,7.926963545
191,X16,0,8.079308192
191,X17,0,7.772331575
191,X18,1,9.857862375
191,X19,0,6.965080346
191,X20,1,8.537975731
191,X21,0,8.027476531
191,X22,0,6.639875834
191,X23,1,7.972121129
191,X24,0,7.845024417
191,X25,1,8.410275909
191,X26,1,7.778630147
191,X27,1,7.568895663
191,X28,1,7.898411093
191,X29,1,7.275172319
191,X30,0,8.193676666
191,X31,0,7.13169851
191,X32,1,8.407601515
191,X33,1,8.434246271
191,X34,0,7.210818453
191,X35,1,7.70616297
191,X36,1,6.749931194
191,X37,1,6.579251212
191,X38,0,8.870101049
191,X39,1,7.515889085
191,X40,0,7.333676396
192,X1,1,8.43511508
192,X2,1,7.781973234
192,X3,1,8.323608442
192,X4,0,9.19715381
192,X5,0,9.953847912
192,X6,1,8.235360644
192,X7,0,7.954372273
192,X8,1,8.576593535
192,X9,1,9.879297314
192,X10,0,8.394121194
192,X11,0,8.805974659
192,X12,0,9.940156937
192,X13,0,8.5754621
192,X14,0,8.08085642
192,X15,1,9.481206851
192,X16,0,9.333530983
192,X17,1,8.154500175
192,X18,0,8.36124089
192,X19,1,8.163656176
192,X20,0,7.963112059
192,X21,1,8.697512746
192,X22,0,8.296047643
192,X23,1,8.000349495
192,X24,0,7.911324019
192,X25,1,8.207674424
192,X26,1,8.174702882
192,X27,1,8.024207486
192,X28,1,7.944492164
192,X29,0,8.114922974
192,X30,0,7.972466016
192,X31,1,7.992944547
192,X32,1,7.803843304
192,X33,0,8.08085642
192,X34,0,8.038512021
192,X35,0,8.191740021
192,X36,1,8.585599224
192,X37,0,8.169902647
192,X38,1,7.961370202
192,X39,0,7.938088727
192,X40,1,8.188966864
193,X1,0,9.042394981
193,X2,0,8.85509298
193,X3,1,7.567345676
193,X4,0,7.746300662
193,X5,0,8.139148679
193,X6,0,8.740656692
193,X7,1,7.977625099
193,X8,0,8.583916823
193,X9,0,8.773384597
193,X10,0,8.097121931
193,X11,1,8.379997952
193,X12,1,7.966933498
193,X13,1,8.010359589
193,X14,1,7.910590612
193,X15,1,8.26178468
193,X16,1,8.651024539
193,X17,0,8.226305988
193,X18,0,8.498418036
193,X19,1,8.406038142
193,X20,0,8.307212627
193,X21,1,8.147288259
193,X22,1,8.416930769
193,X23,1,7.817222786
193,X24,1,7.745002804
193,X25,1,8.188689124
193,X26,0,9.417354541
193,X27,0,8.689801056
193,X28,1,8.749098248
193,X29,0,7.006695227
193,X30,1,8.288534459
193,X31,0,7.326465614
193,X32,1,7.093404626
193,X33,0,8.868694777
193,X34,1,7.539558829
193,X35,1,8.19836439
193,X36,0,7.338888134
193,X37,1,8.436633684
193,X38,0,6.992096427
193,X39,0,6.978213743
193,X40,1,8.33423143
194,X1,0,8.532672762
194,X2,1,8.740336743
194,X3,1,8.884333185
194,X4,0,7.926241523
194,X5,0,8.987196821
194,X6,1,9.337061125
194,X7,1,8.625150333
194,X8,1,8.355614996
194,X9,0,8.020927719
194,X10,1,8.037866235
194,X11,0,8.617038526
194,X12,0,7.824845691
194,X13,0,9.033125753
194,X14,1,8.028455164
194,X15,1,7.910223707
194,X16,1,7.896552702
194,X17,1,8.242229891
194,X18,0,7.841492924
194,X19,0,7.247792582
194,X20,1,7.386470849
194,X21,1,8.271804031
194,X22,0,7.989899375
194,X23,0,8.101071503
194,X24,0,7.857093865
194,X25,0,7.98480339
194,X26,1,7.63336965
194,X27,1,7.410347098
194,X28,0,9.240384493
194,X29,0,8.158229917
194,X30,0,7.147559271
194,X31,1,8.012018239
194,X32,0,7.499976541
194,X33,1,7.845024417
194,X34,0,7.033506484
194,X35,1,8.428361978
194,X36,1,6.857514063
194,X37,1,7.0800265
194,X38,0,7.819636302
194,X39,0,8.151621647
194,X40,0,7.867488569
195,X1,0,9.793058659
195,X2,0,9.615338704
195,X3,1,8.970432074
195,X4,0,9.54959445
195,X5,1,9.02737861
195,X6,0,8.792397742
195,X7,1,8.839276691
195,X8,0,11.83242592
195,X9,1,9.01978501
195,X10,1,8.67180091
195,X11,1,10.00102253
195,X12,1,8.531293316
195,X13,1,10.21456872
195,X14,0,10.24038827
195,X15,1,10.4286302
195,X16,0,12.1139738
195,X17,1,9.082507
195,X18,1,12.2080956
195,X19,0,8.874308039
195,X20,1,9.000853147
195,X21,1,10.0475879
195,X22,0,9.017968479
195,X23,1,11.13972908
195,X24,1,10.4360551
195,X25,1,11.07756285
195,X26,1,8.643473357
195,X27,0,10.48265384
195,X28,1,10.99172959
195,X29,1,9.32607687
195,X30,0,9.98681716
195,X31,0,8.194229305
195,X32,1,10.34093571
195,X33,0,9.33202689
195,X34,0,11.09212334
195,X35,1,8.730367212
195,X36,1,10.22114096
195,X37,0,9.118663583
195,X38,1,8.369388997
195,X39,1,8.92345798
195,X40,1,10.9832058
196,X1,0,8.62299361
196,X2,0,8.452334619
196,X3,1,8.274102002
196,X4,1,7.747596839
196,X5,1,7.944137491
196,X6,1,8.257126286
196,X7,1,9.503159229
196,X8,1,8.458716262
196,X9,1,7.980365765
196,X10,0,7.779885115
196,X11,0,7.578145472
196,X12,1,7.744569809
196,X13,0,8.555644378
196,X14,0,8.243019469
196,X15,1,7.776115477
196,X16,1,8.08085642
196,X17,1,8.219056661
196,X18,1,8.938400406
196,X19,1,7.527793988
196,X20,1,8.967504187
196,X21,0,7.757478767
196,X22,1,8.083019919
196,X23,0,7.307872781
196,X24,0,7.840312983
196,X25,0,7.582738489
196,X26,1,8.037866235
196,X27,1,8.570165076
196,X28,0,7.26612878
196,X29,0,7.917171989
196,X30,1,7.23417718
196,X31,0,8.023224685
196,X32,0,8.55718284
196,X33,1,8.586905804
196,X34,0,7.804251384
196,X35,1,7.527793988
196,X36,1,7.570958583
196,X37,0,7.407924323
196,X38,1,7.6666902
196,X39,0,7.201170883
196,X40,1,7.430114139
197,X1,1,8.125630988
197,X2,1,7.65396918
197,X3,1,9.39764947
197,X4,0,7.356279877
197,X5,0,8.181720455
197,X6,1,9.270964994
197,X7,1,7.109062136
197,X8,0,8.194229305
197,X9,1,7.901377354
197,X10,1,11.01203367
197,X11,0,6.697034248
197,X12,0,7.368970402
197,X13,0,6.994849986
197,X14,1,7.389563954
197,X15,1,8.187855444
197,X16,1,6.949856455
197,X17,0,6.647688374
197,X18,0,8.612866941
197,X19,1,7.111512116
197,X20,1,7.026426809
197,X21,1,7.051855623
197,X22,1,6.909753282
197,X23,0,9.854927362
197,X24,0,9.712145433
197,X25,1,7.069874128
197,X26,0,7.123672785
197,X27,1,6.851184927
197,X28,1,7.215975003
197,X29,1,6.925595197
197,X30,1,6.791221463
197,X31,0,6.967909202
197,X32,1,7.008505182
197,X33,0,6.856461985
197,X34,0,6.807934944
197,X35,0,6.965080346
197,X36,0,7.031741259
197,X37,1,7.142036575
197,X38,1,6.783325201
197,X39,0,7.043159916
197,X40,1,7.126890809
198,X1,0,8.298788394
198,X2,1,7.984462732
198,X3,1,8.285261134
198,X4,1,7.87245515
198,X5,0,8.529714472
198,X6,0,8.665613197
198,X7,1,7.859799181
198,X8,1,8.119100838
198,X9,0,7.652070746
198,X10,0,8.141481041
198,X11,0,8.071530894
198,X12,1,8.26436333
198,X13,0,7.973499964
198,X14,1,8.112527763
198,X15,0,8.06117136
198,X16,1,7.995980475
198,X17,1,7.984121959
198,X18,0,7.997326823
198,X19,0,8.127699853
198,X20,0,8.319229939
198,X21,0,7.682482447
198,X22,0,8.277920258
198,X23,0,8.045267717
198,X24,0,8.392989588
198,X25,0,8.049746291
198,X26,0,7.667626092
198,X27,1,8.311643949
198,X28,1,7.751045118
198,X29,0,8.385716829
198,X30,0,8.025516386
198,X31,0,8.472614148
198,X32,0,7.370230642
198,X33,0,8.226038429
198,X34,1,8.683385366
198,X35,1,8.294549515
198,X36,0,7.913521017
198,X37,1,8.878358041
198,X38,1,7.661056382
198,X39,1,8.311152548
198,X40,0,7.578656851
199,X1,1,8.151909873
199,X2,0,8.822764297
199,X3,1,7.663877259
199,X4,0,7.321188557
199,X5,0,8.166500319
199,X6,0,7.21964204
199,X7,1,7.714677474
199,X8,1,7.499423291
199,X9,0,7.738488122
199,X10,0,7.351799869
199,X11,0,6.826545224
199,X12,0,7.25629724
199,X13,0,7.236339343
199,X14,1,9.169934957
199,X15,0,8.089789176
199,X16,0,7.010311867
199,X17,1,6.9902565
199,X18,1,6.821107472
199,X19,1,6.674561392
199,X20,1,6.717804695
199,X21,1,6.535241271
199,X22,1,6.670766321
199,X23,0,6.573680167
199,X24,0,7.90617884
199,X25,1,6.854354502
199,X26,1,6.723832441
199,X27,0,7.084226422
199,X28,1,7.365812837
199,X29,0,6.966024187
199,X30,0,7.094234846
199,X31,0,7.245655068
199,X32,1,7.295056416
199,X33,1,7.063048163
199,X34,0,9.427224373
199,X35,0,8.668883705
199,X36,1,8.576781983
199,X37,1,9.271059107
199,X38,0,7.210079628
199,X39,1,7.115582126
199,X40,1,7.984462732
200,X1,0,9.258368341
200,X2,0,9.601233151
200,X3,0,9.292841593
200,X4,0,8.459987718
200,X5,1,8.572817095
200,X6,0,8.355850041
200,X7,0,9.26350192
200,X8,1,8.10832229
200,X9,1,8.303504799
200,X10,1,8.809713541
200,X11,1,8.527935288
200,X12,0,8.270525095
200,X13,0,8.703340753
200,X14,0,9.069813137
200,X15,1,8.478868077
200,X16,0,8.34877454
200,X17,1,9.209640127
200,X18,1,8.973604867
200,X19,1,8.318254329
200,X20,0,9.230633075
200,X21,1,8.957252944
200,X22,0,8.775240459
200,X23,0,8.6395878
200,X24,1,8.87416809
200,X25,0,9.03503415
200,X26,1,8.416046009
200,X27,1,8.936955604
200,X28,0,8.713417653
200,X29,1,9.159993998
200,X30,1,8.350193651
200,X31,1,9.050640993
200,X32,1,8.366137716
200,X33,1,8.863474306
200,X34,0,9.034557392
200,X35,1,8.289539485
200,X36,0,8.798303718
200,X37,1,9.179056082
200,X38,0,10.3232171
200,X39,1,8.791790024
200,X40,0,8.663369302
201,X1,1,8.643825842
201,X2,1,7.899153483
201,X3,0,8.409830673
201,X4,1,8.30201781
201,X5,0,7.51479976
201,X6,0,8.441175705
201,X7,0,7.6989362
201,X8,0,7.966933498
201,X9,1,7.625595072
201,X10,0,7.586803535
201,X11,0,7.548555979
201,X12,1,7.654917048
201,X13,0,7.592870288
201,X14,1,7.703007682
201,X15,0,9.652394528
201,X16,1,7.879669915
201,X17,1,8.006700845
201,X18,1,7.602900462
201,X19,1,7.243512975
201,X20,1,7.767687277
201,X21,0,7.87397838
201,X22,0,7.851271997
201,X23,1,8.043984431
201,X24,0,7.520234556
201,X25,1,7.464509835
201,X26,0,7.602401336
201,X27,0,7.185387016
201,X28,0,8.300031712
201,X29,0,8.391629968
201,X30,1,7.430114139
201,X31,1,7.617267814
201,X32,0,7.300472814
201,X33,1,7.510977752
201,X34,1,7.783224016
201,X35,0,7.31521839
201,X36,1,7.012115294
201,X37,0,7.365180126
201,X38,1,7.278628942
201,X39,0,7.28276118
201,X40,0,7.588829878
202,X1,0,8.447843113
202,X2,1,8.216088099
202,X3,0,9.569133072
202,X4,1,8.040768994
202,X5,1,8.269500767
202,X6,0,8.070280893
202,X7,0,7.736743682
202,X8,0,8.429017501
202,X9,1,9.048174321
202,X10,0,7.455876687
202,X11,1,7.983098941
202,X12,1,8.127404563
202,X13,0,7.709308333
202,X14,0,8.738254577
202,X15,0,8.490027523
202,X16,1,7.967280179
202,X17,1,8.503094267
202,X18,0,8.439663989
202,X19,1,8.298539545
202,X20,1,8.312871394
202,X21,0,8.179199798
202,X22,1,8.418697945
202,X23,1,8.201934351
202,X24,1,8.177234886
202,X25,0,8.839131753
202,X26,1,7.803026644
202,X27,1,7.516977225
202,X28,0,8.720950029
202,X29,0,8.209036266
202,X30,1,7.975564658
202,X31,1,7.869401713
202,X32,1,8.917310693
202,X33,1,7.942717541
202,X34,1,8.224163513
202,X35,1,7.495541944
202,X36,1,7.628517627
202,X37,0,7.992268643
202,X38,1,7.712443834
202,X39,0,7.998335396
202,X40,1,8.005367067
203,X1,1,10.01913498
203,X2,0,9.452109387
203,X3,1,10.20525742
203,X4,1,10.62561084
203,X5,1,10.56941769
203,X6,1,9.865941436
203,X7,0,9.82914109
203,X8,1,9.836546147
203,X9,0,10.24120901
203,X10,0,9.789646736
203,X11,0,9.684896125
203,X12,0,10.17618288
203,X13,0,9.831937844
203,X14,0,9.900834035
203,X15,1,10.48040986
203,X16,0,9.743377484
203,X17,1,10.11046107
203,X18,1,10.41472309
203,X19,0,9.52303208
203,X20,1,9.632400354
203,X21,0,9.825147561
203,X22,1,9.636261489
203,X23,1,9.877297569
203,X24,1,9.83729433
203,X25,1,9.572201843
203,X26,0,9.584589973
203,X27,0,9.99369382
203,X28,1,9.558952902
203,X29,0,9.450144364
203,X30,1,9.954845845
203,X31,0,9.795623907
203,X32,0,9.883998876
203,X33,0,9.95807043
203,X34,0,10.06564892
203,X35,0,8.715224042
203,X36,1,9.222762892
203,X37,1,9.788245037
203,X38,1,10.17301838
203,X39,1,9.431722373
203,X40,1,10.26872077
204,X1,0,8.985820874
204,X2,0,9.059168584
204,X3,1,8.937875265
204,X4,1,8.318010278
204,X5,0,8.811950178
204,X6,0,8.972210078
204,X7,1,9.064967719
204,X8,1,7.993957548
204,X9,1,8.440528106
204,X10,0,7.899524472
204,X11,1,9.098961784
204,X12,1,8.321907968
204,X13,1,8.753213481
204,X14,1,7.988882253
204,X15,1,8.915566546
204,X16,1,7.954021087
204,X17,1,8.130647968
204,X18,1,8.513385953
204,X19,0,8.116118432
204,X20,0,7.754052639
204,X21,1,8.407601515
204,X22,1,7.344072851
204,X23,0,8.407601515
204,X24,1,7.767687277
204,X25,1,8.192293731
204,X26,1,7.809135398
204,X27,0,8.447414297
204,X28,1,7.591357047
204,X29,0,7.333676396
204,X30,0,8.178638789
204,X31,1,8.776630098
204,X32,1,8.384575667
204,X33,0,8.35396813
204,X34,1,8.276649125
204,X35,1,7.988203597
204,X36,0,8.811801224
204,X37,1,8.529911964
204,X38,0,8.337827262
204,X39,1,8.802071337
204,X40,1,8.908694593
205,X1,1,7.789454566
205,X2,1,8.066207568
205,X3,1,7.748460024
205,X4,1,8.204945165
205,X5,1,7.834788107
205,X6,1,7.573531263
205,X7,1,7.348587531
205,X8,1,7.976595409
205,X9,0,10.35729828
205,X10,1,7.631431665
205,X11,1,7.982416347
205,X12,1,7.822044008
205,X13,1,7.092573716
205,X14,1,7.193685818
205,X15,1,6.854354502
205,X16,1,10.76473058
205,X17,1,7.250635512
205,X18,1,6.64898455
205,X19,0,6.997595983
205,X20,0,6.530877628
205,X21,0,7.531016332
205,X22,0,7.673688129
205,X23,1,7.28276118
205,X24,0,6.97634807
205,X25,0,7.333023014
205,X26,1,7.678326357
205,X27,1,7.83873756
205,X28,1,7.307202315
205,X29,0,7.089243155
205,X30,0,7.565275282
205,X31,1,7.493317249
205,X32,1,6.597145702
205,X33,0,7.163172391
205,X34,0,7.302496424
205,X35,0,7.536363938
205,X36,0,7.83715965
205,X37,0,7.746300662
205,X38,1,7.423568444
205,X39,0,7.085901464
205,X40,1,7.560080465
206,X1,1,8.645234541
206,X2,0,8.966866554
206,X3,0,7.981733287
206,X4,0,8.38526052
206,X5,1,7.997999318
206,X6,1,7.576097341
206,X7,0,8.014004995
206,X8,0,9.536401457
206,X9,1,9.015662793
206,X10,0,8.080546966
206,X11,1,8.289790583
206,X12,1,8.214735833
206,X13,1,8.524962929
206,X14,0,8.289790583
206,X15,0,9.185945215
206,X16,0,7.936660155
206,X17,1,9.125980023
206,X18,1,7.789454566
206,X19,1,8.161375023
206,X20,1,7.706612914
206,X21,0,9.630037062
206,X22,0,11.18718147
206,X23,0,8.743691111
206,X24,0,8.824530822
206,X25,0,9.168580438
206,X26,1,10.8179967
206,X27,1,10.47285563
206,X28,1,8.911260255
206,X29,1,9.504724932
206,X30,0,8.154500175
206,X31,1,10.55202955
206,X32,0,10.68976071
206,X33,0,8.301769763
206,X34,1,7.992606652
206,X35,0,8.954544488
206,X36,1,8.81150325
206,X37,0,9.92088533
206,X38,1,7.331060305
206,X39,1,7.396948603
206,X40,0,8.299783172
207,X1,1,8.660254034
207,X2,0,8.484463367
207,X3,1,8.507142856
207,X4,1,8.916640227
207,X5,1,8.573006256
207,X6,1,8.958668737
207,X7,0,8.408939606
207,X8,1,8.203577737
207,X9,0,8.392763113
207,X10,0,8.273591798
207,X11,0,8.287528423
207,X12,0,8.464425126
207,X13,1,7.567862605
207,X14,1,7.027314514
207,X15,1,7.987184748
207,X16,1,8.1285852
207,X17,0,8.499029221
207,X18,1,7.950854858
207,X19,1,8.580543507
207,X20,0,8.355614996
207,X21,0,8.640295389
207,X22,0,7.304515946
207,X23,0,7.382124366
207,X24,1,7.745002804
207,X25,1,7.516977225
207,X26,1,6.865891075
207,X27,1,7.516433303
207,X28,1,7.901747519
207,X29,1,8.214735833
207,X30,0,8.673683988
207,X31,0,8.121777419
207,X32,1,7.987184748
207,X33,0,7.31521839
207,X34,0,9.257128533
207,X35,0,8.197263371
207,X36,1,8.486115236
207,X37,0,7.822044008
207,X38,0,5.683579767
207,X39,0,8.378160983
207,X40,1,8.524565946
208,X1,1,8.979038633
208,X2,0,8.256347773
208,X3,1,8.312135108
208,X4,0,8.652073674
208,X5,1,8.307952545
208,X6,1,8.993303139
208,X7,1,8.026496939
208,X8,0,8.010359589
208,X9,0,8.238272625
208,X10,1,8.495969555
208,X11,1,8.063062911
208,X12,0,8.442685139
208,X13,1,8.058010801
208,X14,0,8.236155662
208,X15,0,8.407155086
208,X16,0,8.407601515
208,X17,1,8.384804003
208,X18,0,8.976893928
208,X19,1,8.682877107
208,X20,1,8.703340753
208,X21,1,8.543445563
208,X22,0,7.668093709
208,X23,0,8.293299359
208,X24,1,8.490849216
208,X25,1,8.050703381
208,X26,1,9.033483855
208,X27,0,8.561210077
208,X28,1,8.33302994
208,X29,0,8.135346949
208,X30,1,8.05610966
208,X31,0,8.629092284
208,X32,1,8.112527763
208,X33,1,8.332308352
208,X34,0,8.293299359
208,X35,1,8.581669211
208,X36,1,8.315566484
208,X37,1,8.048468744
208,X38,1,8.733271845
208,X39,1,8.495765244
208,X40,0,8.56959587
209,X1,0,10.37098805
209,X2,0,8.29953457
209,X3,1,8.577723691
209,X4,1,7.889833751
209,X5,1,8.183676583
209,X6,1,8.021584533
209,X7,1,8.419139251
209,X8,1,8.898092346
209,X9,1,8.163371316
209,X10,1,8.26898821
209,X11,0,8.154212695
209,X12,1,8.000014094
209,X13,1,9.199582715
209,X14,0,8.1285852
209,X15,0,7.973155433
209,X16,0,8.831419819
209,X17,0,8.392763113
209,X18,0,7.467942332
209,X19,1,8.650149419
209,X20,1,7.6989362
209,X21,1,9.013595295
209,X22,1,7.97074039
209,X23,0,8.443761913
209,X24,0,8.240912542
209,X25,1,8.392536587
209,X26,1,7.341483852
209,X27,0,7.814803429
209,X28,0,7.96241568
209,X29,1,7.994969523
209,X30,0,7.913886715
209,X31,1,7.61529834
209,X32,1,8.210396255
209,X33,1,8.638702609
209,X34,0,7.646831391
209,X35,1,7.97590836
209,X36,0,8.475954443
209,X37,0,8.843182098
209,X38,0,9.354527292
209,X39,1,8.016317899
209,X40,1,7.908019445
210,X1,1,9.258273026
210,X2,1,8.882252885
210,X3,0,9.133999139
210,X4,1,8.539932678
210,X5,0,9.009936308
210,X6,1,8.736168066
210,X7,0,8.669570872
210,X8,0,8.528726427
210,X9,1,8.453401058
210,X10,1,8.395251521
210,X11,0,8.735846677
210,X12,1,8.880585523
210,X13,1,8.438149984
210,X14,1,8.464425126
210,X15,1,8.570165076
210,X16,1,8.484463367
210,X17,0,8.429454277
210,X18,0,8.926251835
210,X19,0,8.659386957
210,X20,0,8.552753367
210,X21,1,8.610865667
210,X22,1,8.497194545
210,X23,1,8.257904193
210,X24,1,7.931644021
210,X25,1,8.151621647
210,X26,0,9.057422266
210,X27,1,8.166784289
210,X28,1,8.379768516
210,X29,0,8.23483028
210,X30,0,8.23110984
210,X31,1,8.661639796
210,X32,0,8.404472321
210,X33,0,7.779885115
210,X34,0,9.029777268
210,X35,0,8.359603271
210,X36,1,8.520786727
210,X37,0,8.055792451
210,X38,1,8.411832676
210,X39,1,8.28273588
210,X40,1,7.754052639
211,X1,1,8.651724084
211,X2,0,8.496378052
211,X3,0,7.743269701
211,X4,1,7.791109511
211,X5,0,8.007367068
211,X6,0,8.871505346
211,X7,1,7.729295674
211,X8,1,7.21303166
211,X9,1,7.21964204
211,X10,0,7.492760301
211,X11,0,8.237479289
211,X12,0,8.028781162
211,X13,0,7.807510042
211,X14,0,7.249215057
211,X15,1,7.965892735
211,X16,0,7.353081921
211,X17,0,8.267448958
211,X18,0,8.481980436
211,X19,1,8.494947582
211,X20,1,7.310550159
211,X21,1,6.884486652
211,X22,0,7.83715965
211,X23,1,8.442254105
211,X24,1,7.985484357
211,X25,0,8.213110698
211,X26,0,7.145984468
211,X27,1,7.497207223
211,X28,0,7.767687277
211,X29,1,7.554334824
211,X30,1,7.064759028
211,X31,1,7.767687277
211,X32,1,6.816735881
211,X33,0,8.200562797
211,X34,1,7.177782416
211,X35,1,7.475339237
211,X36,0,7.368339686
211,X37,1,7.846589975
211,X38,0,8.532475815
211,X39,1,7.943072717
211,X40,0,6.892641641
212,X1,0,8.681690163
212,X2,1,8.916237732
212,X3,1,9.629182277
212,X4,1,7.646353722
212,X5,1,8.213381737
212,X6,0,7.913521017
212,X7,1,8.426830751
212,X8,0,7.920809679
212,X9,0,7.812782819
212,X10,0,7.489970899
212,X11,0,8.074026216
212,X12,1,7.78113851
212,X13,1,8.899867211
212,X14,0,8.43771699
212,X15,1,8.009695358
212,X16,1,8.556606194
212,X17,0,8.400434631
212,X18,1,8.504107952
212,X19,0,8.387767644
212,X20,1,7.497761701
212,X21,1,9.769841868
212,X22,0,8.747987402
212,X23,0,8.723231275
212,X24,1,7.895063498
212,X25,1,8.344267356
212,X26,1,8.289037098
212,X27,1,8.23164218
212,X28,1,7.835579247
212,X29,0,7.636752112
212,X30,0,7.892452044
212,X31,1,8.058010801
212,X32,0,8.784774592
212,X33,1,7.813187268
212,X34,1,7.932362154
212,X35,0,7.749322465
212,X36,0,7.772752716
212,X37,1,7.669028289
212,X38,1,7.644440762
212,X39,0,8.6850777
212,X40,0,8.165363632
213,X1,0,10.67424371
213,X2,0,8.113127104
213,X3,1,7.881182202
213,X4,0,7.865571758
213,X5,1,8.390041406
213,X6,0,8.03818918
213,X7,1,8.118207049
213,X8,0,7.740664402
213,X9,0,7.482681828
213,X10,1,7.44132039
213,X11,1,7.474204806
213,X12,1,7.213768308
213,X13,0,7.850103545
213,X14,0,7.237059026
213,X15,0,7.081708586
213,X16,0,7.58171964
213,X17,0,7.032624261
213,X18,1,7.260522598
213,X19,0,7.145984468
213,X20,1,7.671826798
213,X21,0,7.426549072
213,X22,0,7.243512975
213,X23,0,7.060476366
213,X24,1,6.828712072
213,X25,1,7.634337236
213,X26,0,6.989335266
213,X27,0,6.935370446
213,X28,1,6.698268054
213,X29,1,6.950814768
213,X30,1,7.781973234
213,X31,1,6.887552572
213,X32,1,6.936342736
213,X33,1,6.9117473
213,X34,1,6.981934677
213,X35,0,7.074116816
213,X36,1,6.935370446
213,X37,1,7.025538315
213,X38,0,6.936342736
213,X39,1,6.871091295
213,X40,0,7.146772179
214,X1,1,8.504310566
214,X2,1,8.928507824
214,X3,1,8.606668198
214,X4,1,8.856091055
214,X5,1,9.034080407
214,X6,1,8.498214225
214,X7,1,8.523970176
214,X8,0,8.697679732
214,X9,0,8.489205155
214,X10,0,8.659386957
214,X11,1,8.602820277
214,X12,1,7.850882665
214,X13,0,5.438079309
214,X14,0,7.816013839
214,X15,0,8.395477433
214,X16,1,8.623713035
214,X17,0,8.201660191
214,X18,0,8.463792415
214,X19,0,8.146998697
214,X20,1,8.374246182
214,X21,0,8.205218426
214,X22,1,8.448057453
214,X23,0,8.195333667
214,X24,1,8.76264603
214,X25,0,8.59674347
214,X26,0,7.74109909
214,X27,1,8.979542602
214,X28,1,7.786551806
214,X29,1,8.502282579
214,X30,1,8.214735833
214,X31,0,7.932003152
214,X32,1,7.957877358
214,X33,1,8.226573475
214,X34,0,8.577723691
214,X35,1,8.484049973
214,X36,1,9.021719013
214,X37,0,8.014004995
214,X38,1,8.003697339
214,X39,0,9.29587566
214,X40,0,8.965079015
215,X1,1,9.024974185
215,X2,1,8.792701463
215,X3,1,8.343315881
215,X4,1,8.027150107
215,X5,0,8.512984347
215,X6,0,8.171882006
215,X7,1,8.203851372
215,X8,1,8.886547413
215,X9,1,9.063578991
215,X10,0,8.92305822
215,X11,0,8.499843553
215,X12,0,8.425735581
215,X13,1,8.237743804
215,X14,1,9.58342002
215,X15,0,9.233959238
215,X16,0,8.961366061
215,X17,0,8.626764828
215,X18,0,9.007612005
215,X19,0,8.910315776
215,X20,0,9.062999784
215,X21,0,8.60043079
215,X22,1,8.643120748
215,X23,1,8.784621535
215,X24,0,8.529516941
215,X25,0,8.592486175
215,X26,0,8.3532615
215,X27,1,8.541495484
215,X28,0,8.54694615
215,X29,1,8.23562572
215,X30,0,8.274611946
215,X31,1,8.371010681
215,X32,0,8.240121298
215,X33,1,8.753371421
215,X34,0,8.709960006
215,X35,0,8.579228582
215,X36,0,8.260751355
215,X37,0,8.309676896
215,X38,0,7.798523054
215,X39,0,8.295548516
215,X40,0,7.829630389
216,X1,0,8.78186249
216,X2,0,8.049746291
216,X3,1,7.659642955
216,X4,0,7.720905252
216,X5,0,8.003028666
216,X6,0,9.004176841
216,X7,1,8.13123655
216,X8,0,8.251924714
216,X9,0,7.491087594
216,X10,0,7.512071246
216,X11,1,7.901007052
216,X12,0,8.079618029
216,X13,1,8.385716829
216,X14,1,8.254008591
216,X15,0,7.476472381
216,X16,0,9.104535313
216,X17,0,8.348301055
216,X18,1,9.376871243
216,X19,0,8.550241045
216,X20,0,8.276394705
216,X21,0,7.26961675
216,X22,1,7.396335294
216,X23,1,7.714231145
216,X24,1,7.41517511
216,X25,1,9.161780181
216,X26,0,8.213381737
216,X27,0,7.795234929
216,X28,1,7.765993079
216,X29,0,7.957877358
216,X30,0,9.046762058
216,X31,0,8.174702882
216,X32,0,8.102283624
216,X33,1,10.01569954
216,X34,0,7.741533589
216,X35,1,7.19142933
216,X36,1,7.404279118
216,X37,0,8.602820277
216,X38,1,7.53796266
216,X39,1,8.078067882
216,X40,1,7.329093736
217,X1,1,10.09009159
217,X2,1,8.994048296
217,X3,0,9.892173793
217,X4,1,8.550047528
217,X5,0,10.12017028
217,X6,1,8.860357273
217,X7,1,9.1146001
217,X8,0,9.922456499
217,X9,1,7.699389406
217,X10,1,8.595264727
217,X11,1,8.112227958
217,X12,1,9.817875196
217,X13,0,8.65434303
217,X14,0,8.415824697
217,X15,0,8.504107952
217,X16,1,9.536401457
217,X17,0,8.551594618
217,X18,1,8.529714472
217,X19,0,7.631916513
217,X20,1,7.812378206
217,X21,0,8.052933037
217,X22,1,8.739856627
217,X23,0,8.704668113
217,X24,0,8.265392931
217,X25,0,8.596928159
217,X26,0,8.59396903
217,X27,1,8.338783971
217,X28,0,8.719153963
217,X29,1,8.279697134
217,X30,1,8.553139318
217,X31,0,7.768956045
217,X32,1,7.796057974
217,X33,1,8.404472321
217,X34,1,8.152198016
217,X35,1,8.183955717
217,X36,0,8.42485858
217,X37,1,8.078067882
217,X38,0,8.599878558
217,X39,1,7.939871576
217,X40,0,7.853604813
218,X1,0,9.652908568
218,X2,0,8.52277757
218,X3,1,8.234034208
218,X4,0,9.270211769
218,X5,1,8.86418137
218,X6,1,8.504918161
218,X7,1,8.560635749
218,X8,1,8.714731714
218,X9,0,8.959568654
218,X10,0,8.605204069
218,X11,0,8.674709629
218,X12,0,9.161465204
218,X13,0,9.518927405
218,X14,0,8.944028325
218,X15,0,8.841592847
218,X16,1,8.973478149
218,X17,1,8.654691705
218,X18,1,8.666647145
218,X19,1,9.118115428
218,X20,0,8.762802487
218,X21,0,9.403024716
218,X22,1,8.769040811
218,X23,0,7.637716433
218,X24,0,8.941152882
218,X25,1,8.016317899
218,X26,0,8.073402969
218,X27,0,8.549273085
218,X28,0,8.125039097
218,X29,1,10.60964967
218,X30,0,8.738735461
218,X31,1,8.685584843
218,X32,0,7.95927596
218,X33,1,8.713582005
218,X34,0,8.739536423
218,X35,1,8.345930262
218,X36,0,9.238247325
218,X37,0,8.830689199
218,X38,0,8.323608442
218,X39,1,9.38890488
218,X40,0,9.072341874
219,X1,1,8.776630098
219,X2,0,8.75542238
219,X3,1,8.447414297
219,X4,0,8.341410211
219,X5,0,8.433376705
219,X6,0,8.591001119
219,X7,0,8.622633704
219,X8,0,7.803435057
219,X9,1,7.980707821
219,X10,0,8.96213539
219,X11,0,8.656955134
219,X12,1,8.214465161
219,X13,1,8.097121931
219,X14,0,8.654168646
219,X15,1,8.234564993
219,X16,0,8.135932772
219,X17,0,7.875119281
219,X18,0,8.351374707
219,X19,0,8.465899897
219,X20,1,8.189244526
219,X21,0,8.331827004
219,X22,0,8.485496105
219,X23,0,8.514790307
219,X24,0,8.223358899
219,X25,1,8.466320861
219,X26,0,9.0653146
219,X27,0,8.198914445
219,X28,0,9.109746257
219,X29,1,9.150271846
219,X30,0,7.971776123
219,X31,0,8.258163362
219,X32,1,8.645762292
219,X33,0,8.29953457
219,X34,1,7.375882148
219,X35,0,7.415776975
219,X36,1,7.861727078
219,X37,1,7.491645474
219,X38,1,8.035278911
219,X39,0,9.909519325
219,X40,1,7.51479976
220,X1,1,9.743260113
220,X2,0,9.36391946
220,X3,0,9.000359807
220,X4,1,8.838261683
220,X5,0,8.405143688
220,X6,1,8.98168164
220,X7,0,7.824845691
220,X8,0,8.335431478
220,X9,1,8.404472321
220,X10,1,8.092545264
220,X11,0,8.575273402
220,X12,0,8.415824697
220,X13,0,8.02125618
220,X14,1,8.894944461
220,X15,1,8.315566484
220,X16,1,8.372167419
220,X17,0,8.254528882
220,X18,1,9.448333126
220,X19,1,8.801318948
220,X20,0,7.736307097
220,X21,0,8.985194818
220,X22,1,8.490643856
220,X23,1,8.946895524
220,X24,1,8.007034012
220,X25,0,9.285262298
220,X26,0,8.771215062
220,X27,0,8.940105213
220,X28,1,8.24407127
220,X29,0,8.161945799
220,X30,0,8.528726427
220,X31,0,8.06117136
220,X32,1,7.804659297
220,X33,0,8.207946941
220,X34,0,8.30498958
220,X35,1,8.157083785
220,X36,1,8.458079927
220,X37,1,8.487970333
220,X38,1,8.26898821
220,X39,0,8.287528423
220,X40,0,7.839525582
221,X1,1,8.884194633
221,X2,0,9.216521231
221,X3,1,8.077757564
221,X4,1,8.047509511
221,X5,0,8.677609913
221,X6,1,8.052933037
221,X7,0,8.085178748
221,X8,0,8.28172399
221,X9,1,7.75576717
221,X10,0,8.203851372
221,X11,0,8.183955717
221,X12,1,8.003363059
221,X13,1,7.902117546
221,X14,1,7.551186867
221,X15,0,7.748891337
221,X16,1,8.261009786
221,X17,1,6.74051936
221,X18,0,6.822197391
221,X19,0,6.938284484
221,X20,0,6.913737351
221,X21,0,7.499423291
221,X22,0,7.069023427
221,X23,0,7.796057974
221,X24,0,8.381602537
221,X25,0,7.7419679
221,X26,0,7.489970899
221,X27,0,8.024534872
221,X28,0,7.661997559
221,X29,1,7.512617545
221,X30,1,7.772752716
221,X31,1,7.717351272
221,X32,1,7.26612878
221,X33,0,7.314552832
221,X34,1,7.304515946
221,X35,0,7.351158226
221,X36,1,7.134093721
221,X37,0,8.492490579
221,X38,1,7.931284762
221,X39,1,7.758760544
221,X40,0,7.554858521
222,X1,1,9.260367866
222,X2,0,8.582980932
222,X3,0,8.919988071
222,X4,0,8.945202264
222,X5,1,8.635153989
222,X6,0,9.052516287
222,X7,1,8.605936401
222,X8,1,8.648572269
222,X9,0,7.658699558
222,X10,1,7.901747519
222,X11,0,9.680468993
222,X12,1,8.559294367
222,X13,0,8.72907355
222,X14,1,9.526464118
222,X15,1,9.024131268
222,X16,1,8.704336438
222,X17,0,8.823647949
222,X18,0,9.272563715
222,X19,1,8.777555453
222,X20,0,8.471358655
222,X21,0,9.359449795
222,X22,1,8.374938144
222,X23,1,7.703007682
222,X24,0,7.940227765
222,X25,0,8.212568398
222,X26,0,8.167351987
222,X27,0,8.170185653
222,X28,1,8.209852481
222,X29,1,8.888894669
222,X30,1,8.904358542
222,X31,0,8.525954697
222,X32,1,8.28273588
222,X33,1,7.608374474
222,X34,0,7.676473646
222,X35,0,8.422222954
222,X36,0,8.57753542
222,X37,0,8.350193651
222,X38,0,7.645397699
222,X39,0,7.992944547
222,X40,1,8.479491324
223,X1,0,8.284756593
223,X2,0,8.635331719
223,X3,0,8.001019961
223,X4,1,8.525756422
223,X5,1,8.201934351
223,X6,0,8.482601747
223,X7,0,7.930565854
223,X8,1,8.615589513
223,X9,0,8.191740021
223,X10,0,7.815207062
223,X11,0,7.738488122
223,X12,0,8.115520882
223,X13,0,7.418780883
223,X14,1,8.506738734
223,X15,1,7.74543561
223,X16,1,8.443977129
223,X17,0,8.951051374
223,X18,0,7.427738841
223,X19,1,8.000349495
223,X20,1,7.977625099
223,X21,1,7.457032089
223,X22,1,7.746732908
223,X23,0,7.92984643
223,X24,1,8.636219898
223,X25,0,8.173857455
223,X26,0,8.425954711
223,X27,1,9.184714824
223,X28,1,7.900266037
223,X29,1,8.004699511
223,X30,0,8.018954683
223,X31,1,7.375882148
223,X32,1,8.168769824
223,X33,1,8.13446757
223,X34,0,8.070906089
223,X35,0,8.309922989
223,X36,1,7.923348212
223,X37,1,7.835974582
223,X38,0,7.482681828
223,X39,1,7.631431665
223,X40,0,8.357962966
224,X1,1,8.429672594
224,X2,0,8.755737539
224,X3,1,8.536995819
224,X4,0,8.310169022
224,X5,0,8.273081334
224,X6,1,8.55101474
224,X7,0,7.938088727
224,X8,0,8.048149102
224,X9,1,9.021719013
224,X10,0,8.64453044
224,X11,0,8.389132521
224,X12,1,7.87359779
224,X13,1,7.697575347
224,X14,0,8.695674049
224,X15,0,8.115221973
224,X16,0,8.518192692
224,X17,1,8.008032847
224,X18,1,7.888709524
224,X19,0,8.152198016
224,X20,0,8.140607043
224,X21,1,7.881182202
224,X22,0,8.652947112
224,X23,0,7.911324019
224,X24,1,8.28878581
224,X25,0,8.653645315
224,X26,1,8.24617156
224,X27,1,8.188966864
224,X28,1,8.26898821
224,X29,0,8.236155662
224,X30,0,8.339739766
224,X31,1,7.813995675
224,X32,0,8.432288684
224,X33,1,8.441822884
224,X34,1,8.276649125
224,X35,1,7.920446505
224,X36,0,8.708309296
224,X37,0,8.311152548
224,X38,0,7.83715965
224,X39,0,7.669961995
224,X40,1,8.534443545
225,X1,1,8.380227336
225,X2,0,7.80139132
225,X3,1,8.110126802
225,X4,0,7.767263997
225,X5,1,8.574140472
225,X6,0,8.988945291
225,X7,0,9.160834952
225,X8,0,7.795234929
225,X9,1,8.107117471
225,X10,1,7.717796211
225,X11,0,8.384804003
225,X12,1,8.395703294
225,X13,1,7.829232538
225,X14,0,7.608870629
225,X15,1,8.215547412
225,X16,1,7.529943371
225,X17,1,8.064007347
225,X18,1,7.887584032
225,X19,1,8.027476531
225,X20,1,8.106212903
225,X21,0,8.15017927
225,X22,0,8.542080907
225,X23,0,7.696667082
225,X24,0,8.425735581
225,X25,0,8.059908335
225,X26,0,7.716906135
225,X27,1,7.631431665
225,X28,1,7.876258882
225,X29,1,8.357493813
225,X30,0,8.101071503
225,X31,1,8.201111644
225,X32,1,8.359837381
225,X33,0,7.407924323
225,X34,1,7.444833274
225,X35,1,8.857657449
225,X36,0,8.333751007
225,X37,1,8.509765676
225,X38,1,7.861341796
225,X39,0,7.795234929
225,X40,1,7.454719949
226,X1,0,8.41294317
226,X2,1,7.847371836
226,X3,1,7.549609165
226,X4,0,8.084254106
226,X5,0,8.004031508
226,X6,1,8.121480375
226,X7,0,8.017307508
226,X8,1,7.958227192
226,X9,0,7.919356191
226,X10,1,7.329749689
226,X11,0,7.708410667
226,X12,0,7.674152921
226,X13,1,8.280964401
226,X14,0,7.949797216
226,X15,1,7.472500745
226,X16,1,7.855544678
226,X17,0,7.433075349
226,X18,0,7.816819966
226,X19,0,7.412764017
226,X20,1,8.315077007
226,X21,0,7.980365765
226,X22,0,8.70731756
226,X23,1,8.02059915
226,X24,1,7.154615357
226,X25,0,7.554334824
226,X26,1,8.072155308
226,X27,0,7.422373701
226,X28,0,7.679251426
226,X29,1,8.106816039
226,X30,1,8.299783172
226,X31,1,7.305188215
226,X32,1,8.436633684
226,X33,0,7.549082711
226,X34,0,7.510977752
226,X35,1,8.276394705
226,X36,1,7.34536484
226,X37,0,7.544861069
226,X38,1,8.057060682
226,X39,1,7.970049305
226,X40,0,7.35436233
227,X1,1,9.629445366
227,X2,0,8.527143522
227,X3,1,9.293853972
227,X4,0,8.851806559
227,X5,0,8.266164437
227,X6,1,9.375091808
227,X7,0,8.962391702
227,X8,1,8.276394705
227,X9,0,8.471149253
227,X10,1,8.23853693
227,X11,1,10.08897077
227,X12,0,8.356319966
227,X13,0,8.600798775
227,X14,0,8.153925132
227,X15,1,8.171034189
227,X16,1,8.33710913
227,X17,0,7.956476798
227,X18,0,8.635331719
227,X19,0,9.115040192
227,X20,1,8.169619562
227,X21,1,8.068402959
227,X22,1,8.579040595
227,X23,1,8.176110342
227,X24,0,8.897682313
227,X25,1,7.996653875
227,X26,1,7.918992488
227,X27,0,8.321664807
227,X28,0,8.106212903
227,X29,0,8.708144075
227,X30,0,8.354674262
227,X31,1,8.348537825
227,X32,0,7.95927596
227,X33,1,8.236420527
227,X34,0,8.112227958
227,X35,0,8.17159948
227,X36,0,8.651024539
227,X37,1,8.259716961
227,X38,1,8.287025025
227,X39,1,8.531096097
227,X40,1,8.066207568
228,X1,0,9.047233034
228,X2,1,8.421342866
228,X3,0,7.43543802
228,X4,0,7.481555702
228,X5,0,7.314552832
228,X6,0,8.231908244
228,X7,1,7.942362238
228,X8,0,8.568266462
228,X9,0,8.661293535
228,X10,1,7.825245291
228,X11,1,8.410720947
228,X12,1,7.959625305
228,X13,1,8.080546966
228,X14,1,7.910957383
228,X15,0,7.75576717
228,X16,1,7.201916318
228,X17,1,8.92837526
228,X18,0,7.691200098
228,X19,0,7.992606652
228,X20,0,7.529943371
228,X21,0,7.277247727
228,X22,1,7.776115477
228,X23,1,7.463363046
228,X24,1,7.809135398
228,X25,1,8.23164218
228,X26,1,6.882437471
228,X27,0,7.716906135
228,X28,1,7.563200592
228,X29,0,8.003697339
228,X30,0,7.53369371
228,X31,0,7.815610532
228,X32,1,8.080237416
228,X33,1,7.967626739
228,X34,1,7.476472381
228,X35,0,8.499029221
228,X36,0,8.990067696
228,X37,1,7.948385285
228,X38,0,8.214194415
228,X39,1,8.259199363
228,X40,0,8.130942302
229,X1,1,8.744647438
229,X2,0,8.047829357
229,X3,0,8.086102536
229,X4,0,7.975564658
229,X5,1,7.931644021
229,X6,0,7.87359779
229,X7,1,8.686091728
229,X8,1,8.474911799
229,X9,0,8.388677769
229,X10,1,8.152774053
229,X11,1,9.263027694
229,X12,1,8.68016202
229,X13,1,8.644002038
229,X14,0,8.037543185
229,X15,0,8.05452261
229,X16,1,8.427268484
229,X17,1,8.841881989
229,X18,0,7.579167967
229,X19,1,7.97831097
229,X20,1,8.091015042
229,X21,1,8.86092473
229,X22,1,9.022443301
229,X23,0,8.082093278
229,X24,1,7.794411206
229,X25,1,9.463198053
229,X26,0,8.153637486
229,X27,0,8.548885638
229,X28,0,8.104099056
229,X29,1,8.506940815
229,X30,0,8.955964118
229,X31,1,8.70847449
229,X32,1,8.406485069
229,X33,1,7.928045601
229,X34,1,7.61085279
229,X35,0,8.852950887
229,X36,0,7.937731775
229,X37,1,7.658699558
229,X38,0,8.42485858
229,X39,0,7.548555979
229,X40,0,7.735433352
230,X1,1,9.072341874
230,X2,0,9.133135301
230,X3,0,8.390041406
230,X4,1,9.487441665
230,X5,0,9.302828391
230,X6,1,8.371010681
230,X7,1,8.23004431
230,X8,0,8.526747404
230,X9,0,8.758569511
230,X10,0,8.119993828
230,X11,1,8.238801166
230,X12,0,9.240772579
230,X13,0,8.180600948
230,X14,1,8.039802344
230,X15,0,8.558143178
230,X16,1,8.315811132
230,X17,0,9.419384999
230,X18,1,8.884333185
230,X19,1,8.072467369
230,X20,1,8.911395107
230,X21,0,9.411728991
230,X22,0,8.390495538
230,X23,0,8.449128461
230,X24,1,8.360071436
230,X25,1,7.669961995
230,X26,0,8.174139343
230,X27,0,8.429235913
230,X28,0,8.391629968
230,X29,1,8.362642432
230,X30,1,8.623713035
230,X31,1,8.271292653
230,X32,1,8.644882553
230,X33,0,8.646816959
230,X34,1,9.354180942
230,X35,0,7.635303886
230,X36,0,8.216088099
230,X37,1,8.14612951
230,X38,1,8.723719437
230,X39,1,8.029432841
230,X40,0,8.442469645
231,X1,1,9.164924508
231,X2,1,8.206856428
231,X3,0,8.307952545
231,X4,1,8.584103897
231,X5,0,8.626047596
231,X6,0,9.892578262
231,X7,0,8.814330423
231,X8,0,8.167068178
231,X9,0,9.376193736
231,X10,1,8.204671829
231,X11,1,8.173857455
231,X12,0,8.81135423
231,X13,1,9.089302044
231,X14,0,8.481773246
231,X15,1,8.347590407
231,X16,0,8.315811132
231,X17,1,5.398162702
231,X18,1,8.077757564
231,X19,0,10.17967886
231,X20,0,7.754481547
231,X21,1,8.8596475
231,X22,1,9.284798283
231,X23,1,9.974691312
231,X24,0,9.638870753
231,X25,0,10.11463949
231,X26,0,7.871311203
231,X27,1,8.544419178
231,X28,1,8.882946799
231,X29,1,10.46330332
231,X30,0,8.384804003
231,X31,0,8.02289687
231,X32,1,9.062768008
231,X33,0,8.291045131
231,X34,0,8.512783483
231,X35,1,8.255308812
231,X36,1,8.353732642
231,X37,1,8.559869466
231,X38,1,8.376781038
231,X39,1,9.149103063
231,X40,1,8.566364235
232,X1,0,9.033841828
232,X2,1,8.901366564
232,X3,0,8.909505513
232,X4,0,9.355479138
232,X5,0,8.830104318
232,X6,1,9.174091239
232,X7,1,8.567886306
232,X8,1,8.822911626
232,X9,1,8.806723555
232,X10,0,9.012377119
232,X11,0,8.711443319
232,X12,1,8.334471555
232,X13,1,8.608130186
232,X14,1,8.815815204
232,X15,1,8.270781013
232,X16,1,8.597851094
232,X17,0,8.777709596
232,X18,1,8.30201781
232,X19,1,8.862058677
232,X20,1,9.143666239
232,X21,1,8.497194545
232,X22,0,8.560061092
232,X23,0,8.922124824
232,X24,0,8.728102205
232,X25,0,9.079776002
232,X26,1,8.817001444
232,X27,1,9.226312141
232,X28,1,8.240121298
232,X29,0,8.880307359
232,X30,1,8.688285266
232,X31,1,8.992930353
232,X32,1,8.477620416
232,X33,1,8.482808765
232,X34,1,8.893298144
232,X35,0,8.67692825
232,X36,0,9.079889943
232,X37,0,9.878426122
232,X38,0,8.597851094
232,X39,1,9.023287641
232,X40,0,8.664578178
233,X1,0,8.639410824
233,X2,1,9.056722883
233,X3,1,8.52337405
233,X4,1,7.849713758
233,X5,1,8.959697147
233,X6,1,9.107088742
233,X7,0,10.10254331
233,X8,0,10.40925038
233,X9,1,6.982862751
233,X10,1,7.524561226
233,X11,0,8.458079927
233,X12,0,8.048149102
233,X13,0,7.96241568
233,X14,0,6.719013154
233,X15,1,9.611797459
233,X16,1,7.655864018
233,X17,0,8.195609567
233,X18,0,6.866933284
233,X19,1,7.213768308
233,X20,1,6.995766156
233,X21,1,6.768493212
233,X22,1,6.541029999
233,X23,0,6.559615237
233,X24,0,6.516193076
233,X25,1,6.656726524
233,X26,0,6.56948142
233,X27,1,6.444131257
233,X28,0,6.429719478
233,X29,0,6.447305863
233,X30,0,6.396929655
233,X31,0,6.376726948
233,X32,1,6.816735881
233,X33,0,6.56667243
233,X34,1,6.520621128
233,X35,1,6.37502482
233,X36,0,7.187657164
233,X37,1,7.72001794
233,X38,0,8.440528106
233,X39,1,8.833316937
233,X40,1,6.727431725
234,X1,1,10.59209946
234,X2,1,9.392411898
234,X3,1,7.999678579
234,X4,0,8.727778213
234,X5,0,8.399535148
234,X6,0,9.093019729
234,X7,0,9.082166033
234,X8,1,9.277344601
234,X9,0,8.857941985
234,X10,1,8.714731714
234,X11,0,8.514990768
234,X12,0,8.566554621
234,X13,1,8.602636673
234,X14,1,8.889170455
234,X15,0,8.281470858
234,X16,1,8.198914445
234,X17,0,9.766407012
234,X18,0,10.57023942
234,X19,1,9.808187373
234,X20,1,8.266678443
234,X21,0,10.2418865
234,X22,0,8.558718938
234,X23,0,10.41120836
234,X24,0,9.531626452
234,X25,1,9.008468956
234,X26,1,9.70722933
234,X27,0,8.758726608
234,X28,0,7.599901959
234,X29,0,7.546446274
234,X30,1,7.533158807
234,X31,0,8.851090688
234,X32,0,9.896916007
234,X33,1,5.631211782
234,X34,1,9.578657284
234,X35,0,8.003028666
234,X36,1,9.043340831
234,X37,1,8.011023379
234,X38,1,8.445267452
234,X39,0,7.72753511
234,X40,0,8.711113884
235,X1,1,8.064007347
235,X2,0,7.717796211
235,X3,0,7.869401713
235,X4,1,8.062432792
235,X5,0,8.952734767
235,X6,0,5.402677382
235,X7,1,8.036249942
235,X8,1,7.592366129
235,X9,0,7.406103381
235,X10,1,8.037866235
235,X11,1,8.224431573
235,X12,1,7.192934221
235,X13,1,8.455955882
235,X14,0,8.155936338
235,X15,1,7.36264527
235,X16,0,5.38907173
235,X17,0,8.550627968
235,X18,0,7.884952946
235,X19,1,9.242420265
235,X20,0,7.491645474
235,X21,0,7.784889296
235,X22,1,7.35436233
235,X23,1,8.258422462
235,X24,1,7.97590836
235,X25,1,6.965080346
235,X26,1,7.463363046
235,X27,1,8.028129059
235,X28,1,7.434847875
235,X29,0,8.528528701
235,X30,0,7.483244416
235,X31,1,7.138073034
235,X32,0,8.692993531
235,X33,1,7.334981879
235,X34,1,7.77148876
235,X35,0,7.313886832
235,X36,0,7.128495946
235,X37,1,8.485289642
235,X38,1,7.602900462
235,X39,1,7.123672785
235,X40,1,7.809135398
236,X1,1,8.87626526
236,X2,1,8.576970395
236,X3,0,9.38890488
236,X4,1,8.61812391
236,X5,0,8.766705998
236,X6,1,8.610865667
236,X7,0,8.151621647
236,X8,1,8.744009988
236,X9,0,8.0522965
236,X10,0,8.703174709
236,X11,0,9.453208116
236,X12,1,8.105307516
