subj_idx,trial,response,rt
254,X1,0,8.703174709
254,X10,0,8.801017834
254,X11,1,8.324821299
254,X12,1,8.870101049
254,X13,1,8.585785983
254,X14,1,8.399984991
254,X15,0,8.357728417
254,X16,1,8.418918622
254,X17,0,8.390722527
254,X18,0,8.464846711
254,X19,1,8.761550139
254,X2,1,8.501470231
254,X20,0,7.916807491
254,X21,1,8.161945799
254,X22,1,8.382747095
254,X23,0,8.748622322
254,X24,1,8.699514748
254,X25,1,8.133880888
254,X26,1,8.313361951
254,X27,1,8.568836425
254,X28,1,8.152198016
254,X29,1,8.635331719
254,X3,0,8.374707543
254,X30,0,8.132118773
254,X31,1,8.935245415
254,X32,0,8.42463921
254,X33,0,8.191186005
254,X34,0,8.651024539
254,X35,0,8.712266432
254,X36,0,8.896588072
254,X37,0,8.174702882
254,X38,0,8.655562861
254,X39,1,8.651374373
254,X4,1,8.298539545
254,X40,1,8.26178468
254,X5,0,8.478660242
254,X6,0,8.419359831
254,X7,0,9.127284797
254,X8,0,8.749573948
254,X9,1,8.200837258
255,X1,0,9.904986429
255,X10,1,8.188133415
255,X11,0,12.15313062
255,X12,1,8.231908244
255,X13,0,8.694167142
255,X14,1,9.128370809
255,X15,1,8.542080907
255,X16,0,10.36715867
255,X17,0,10.1243485
255,X18,0,8.137980454
255,X19,1,11.05999132
255,X2,1,8.919319398
255,X20,0,9.658992675
255,X21,1,11.05510334
255,X22,1,11.69168234
255,X23,1,9.932172186
255,X24,0,9.946020083
255,X25,1,8.799661697
255,X26,1,7.781973234
255,X27,0,9.191157553
255,X28,1,9.903937451
255,X29,0,9.994515851
255,X3,0,8.028781162
255,X30,1,8.556798446
255,X31,0,9.841239739
255,X32,1,8.73777346
255,X33,1,9.587954552
255,X34,1,9.675959403
255,X35,0,10.48313003
255,X36,1,10.71237123
255,X37,1,9.608579435
255,X38,1,10.08451661
255,X39,0,9.201602306
255,X4,0,9.208438565
255,X40,0,8.557759153
255,X5,1,10.93332123
255,X6,0,10.51888938
255,X7,1,7.789454566
255,X8,1,8.151909873
255,X9,0,10.98941979
256,X1,0,9.403272108
256,X10,0,9.40820714
256,X11,0,8.463581422
256,X12,1,9.260748275
256,X13,1,7.990238186
256,X14,0,10.01189343
256,X15,1,8.649799156
256,X16,0,8.649273532
256,X17,1,8.313607139
256,X18,0,10.56374991
256,X19,0,8.992681751
256,X2,1,9.040974526
256,X20,0,8.920121752
256,X21,0,9.179674958
256,X22,0,9.321881747
256,X23,0,8.690137586
256,X24,1,8.479698987
256,X25,0,7.917900586
256,X26,1,9.020389788
256,X27,1,8.95312284
256,X28,0,8.904358542
256,X29,0,8.823353485
256,X3,0,9.184099061
256,X30,0,8.617943095
256,X31,1,10.27367085
256,X32,1,8.862058677
256,X33,1,8.550241045
256,X34,1,8.263332667
256,X35,0,8.561210077
256,X36,0,8.397733751
256,X37,0,9.021839764
256,X38,0,8.099554282
256,X39,0,9.598998362
256,X4,1,8.496582238
256,X40,0,8.602820277
256,X5,1,8.803273983
256,X6,1,8.918650278
256,X7,0,8.525359754
256,X8,1,9.066470002
256,X9,1,8.236155662
257,X1,1,8.49023301
257,X10,0,8.574329383
257,X11,0,7.03438793
257,X12,0,8.07184315
257,X13,0,7.74586823
257,X14,0,7.43366654
257,X15,1,7.659642955
257,X16,0,7.238496841
257,X17,0,7.163946684
257,X18,1,7.686162303
257,X19,1,7.329749689
257,X2,1,7.908754739
257,X20,1,7.565275282
257,X21,0,7.830822995
257,X22,1,7.661997559
257,X23,1,9.389741
257,X24,0,9.010913347
257,X25,0,8.894258825
257,X26,0,7.183870715
257,X27,0,7.43366654
257,X28,1,8.027802848
257,X29,1,7.271008538
257,X3,0,7.789454566
257,X30,1,8.082402254
257,X31,1,7.767687277
257,X32,1,7.792761721
257,X33,0,7.112327445
257,X34,1,7.489970899
257,X35,1,8.085794701
257,X36,0,7.34536484
257,X37,0,7.632401127
257,X38,0,7.773594467
257,X39,1,7.171656823
257,X4,0,8.858226439
257,X40,1,7.551712215
257,X5,0,7.611347717
257,X6,0,7.809947086
257,X7,0,8.542665987
257,X8,1,7.723120092
257,X9,1,7.455876687
258,X1,1,8.747193184
258,X10,1,7.947325027
258,X11,0,8.182838711
258,X12,0,10.63830437
258,X13,1,8.461680481
258,X14,1,7.636269603
258,X15,1,8.307212627
258,X16,1,8.356554845
258,X17,1,8.112827479
258,X18,1,8.121183242
258,X19,1,8.348301055
258,X2,0,8.752581469
258,X20,1,7.933079772
258,X21,0,9.060331105
258,X22,1,8.073402969
258,X23,1,7.903965634
258,X24,1,9.023046474
258,X25,1,8.625150333
258,X26,1,8.378160983
258,X27,1,8.285513309
258,X28,1,7.727975542
258,X29,1,8.840724917
258,X3,1,8.447843113
258,X30,1,8.247482004
258,X31,0,7.682482447
258,X32,0,8.116715625
258,X33,1,7.454719949
258,X34,1,7.608870629
258,X35,0,7.631916513
258,X36,1,8.269500767
258,X37,0,8.491054534
258,X38,0,8.459352192
258,X39,1,8.559294367
258,X4,0,8.717190933
258,X40,0,9.406318255
258,X5,1,9.235618179
258,X6,1,8.573573525
258,X7,1,9.315690888
258,X8,1,9.039314775
258,X9,0,8.771059915
259,X1,0,8.929700114
259,X10,1,7.647308832
259,X11,1,7.604396349
259,X12,0,7.499423291
259,X13,1,7.850493181
259,X14,1,7.669961995
259,X15,0,7.965198291
259,X16,0,7.147559271
259,X17,0,8.460834458
259,X18,0,8.192570471
259,X19,0,8.624252264
259,X2,0,8.097426299
259,X20,1,8.1285852
259,X21,0,7.80588204
259,X22,0,7.69211334
259,X23,0,8.107418812
259,X24,0,8.582044164
259,X25,1,7.21964204
259,X26,1,7.841099765
259,X27,1,7.559559496
259,X28,0,7.862497197
259,X29,1,7.856706793
259,X3,1,8.301769763
259,X30,1,7.713784617
259,X31,0,7.662467815
259,X32,1,8.289539485
259,X33,1,7.320526962
259,X34,1,7.481555702
259,X35,1,7.377758908
259,X36,0,8.435332165
259,X37,1,7.772331575
259,X38,0,7.95927596
259,X39,1,7.87207398
259,X4,1,7.499423291
259,X40,1,7.020190708
259,X5,1,7.868636894
259,X6,1,8.159088655
259,X7,0,8.152198016
259,X8,0,7.844240718
259,X9,0,7.727975542
260,X1,0,8.778479953
260,X10,0,9.661033753
260,X11,1,8.159088655
260,X12,1,9.093019729
260,X13,0,7.765569081
260,X14,0,8.703340753
260,X15,1,8.467582691
260,X16,0,8.555836815
260,X17,0,9.000853147
260,X18,1,8.055475142
260,X19,1,8.000349495
260,X2,1,8.185628891
260,X20,0,5.860786223
260,X21,0,8.784774592
260,X22,0,8.212297138
260,X23,1,7.11395611
260,X24,0,5.509388337
260,X25,0,8.649974303
260,X26,1,8.116417073
260,X27,0,8.172446818
260,X28,0,7.702556113
260,X29,1,8.210124405
260,X3,1,9.64614068
260,X30,1,7.97074039
260,X31,0,7.128495946
260,X32,0,7.248504072
260,X33,0,8.185907481
260,X34,1,8.415824697
260,X35,1,8.080237416
260,X36,0,7.942717541
260,X37,1,8.102586425
260,X38,0,7.485491608
260,X39,1,6.421622268
260,X4,1,8.105005538
260,X40,1,7.619724214
260,X5,0,7.695303135
260,X6,0,7.981391582
260,X7,0,7.942362238
260,X8,0,8.084870629
260,X9,0,8.14031554
261,X1,1,9.033245134
261,X10,1,8.204671829
261,X11,1,8.460411177
261,X12,0,7.839525582
261,X13,0,8.664405571
261,X14,1,8.020927719
261,X15,1,8.303752416
261,X16,1,7.70210434
261,X17,0,7.704361168
261,X18,0,7.518064181
261,X19,1,8.277920258
261,X2,1,8.317521996
261,X20,1,7.996653875
261,X21,1,7.80016307
261,X22,1,8.469052816
261,X23,1,7.574558484
261,X24,1,7.449498005
261,X25,1,8.246433786
261,X26,1,8.120588712
261,X27,0,8.050703381
261,X28,0,8.329175442
261,X29,0,8.244596756
261,X3,1,8.535229554
261,X30,1,7.463936604
261,X31,0,8.665440768
261,X32,1,7.957877358
261,X33,1,7.479864131
261,X34,1,8.406931797
261,X35,0,7.757478767
261,X36,0,8.815370001
261,X37,0,8.192847135
261,X38,1,8.654691705
261,X39,1,8.24170316
261,X4,1,8.30844552
261,X40,1,7.912789221
261,X5,0,8.422442855
261,X6,0,8.824089483
261,X7,1,7.807510042
261,X8,0,8.683554729
261,X9,1,7.97074039
262,X1,1,9.14729407
262,X10,1,10.43361568
262,X11,1,8.766394277
262,X12,1,9.413036288
262,X13,1,10.38859529
262,X14,0,11.19237579
262,X15,0,11.03447022
262,X16,1,10.89434758
262,X17,1,10.02848892
262,X18,1,9.273690687
262,X19,0,9.322865163
262,X2,1,10.04002692
262,X20,1,9.019542997
262,X21,1,10.2722541
262,X22,1,8.979038633
262,X23,0,9.370331108
262,X24,0,9.701065324
262,X25,0,9.179365568
262,X26,0,9.017604777
262,X27,1,8.996032669
262,X28,1,9.012742728
262,X29,1,9.627865795
262,X3,1,9.281171553
262,X30,0,8.675051276
262,X31,0,10.01104066
262,X32,1,9.61460476
262,X33,1,9.438113192
262,X34,1,10.02672237
262,X35,1,8.957639268
262,X36,0,10.65280238
262,X37,1,9.527119975
262,X38,1,9.391160803
262,X39,0,9.726452
262,X4,1,10.00563792
262,X40,1,9.086929027
262,X5,0,9.086929027
262,X6,1,8.903543436
262,X7,1,9.725197857
262,X8,1,8.958540111
262,X9,1,8.242493153
263,X1,0,8.301025254
263,X10,1,7.266827348
263,X11,0,6.892641641
263,X12,0,8.13005904
263,X13,0,7.140453043
263,X14,0,5.361292166
263,X15,0,8.094073148
263,X16,0,7.532088144
263,X17,0,7.97074039
263,X18,0,7.495541944
263,X19,1,7.832410927
263,X2,1,8.146709052
263,X20,1,6.981005741
263,X21,1,7.611347717
263,X22,0,7.777373603
263,X23,1,6.568077911
263,X24,1,7.781555959
263,X25,1,7.82084088
263,X26,0,6.816735881
263,X27,1,7.760040681
263,X28,0,7.804251384
263,X29,0,7.237778192
263,X3,1,7.444248649
263,X30,1,7.10824414
263,X31,1,7.156956365
263,X32,0,7.160069208
263,X33,1,7.719573989
263,X34,1,6.793466133
263,X35,0,6.849066283
263,X36,0,7.909856667
263,X37,1,7.167037877
263,X38,0,7.749322465
263,X39,0,7.579167967
263,X4,1,7.772331575
263,X40,1,7.252053952
263,X5,0,7.564757013
263,X6,0,7.859799181
263,X7,0,7.811568489
263,X8,0,7.598399329
263,X9,1,7.528869257
264,X1,0,9.0653146
264,X10,1,8.432724035
264,X11,0,10.1650053
264,X12,1,8.576593535
264,X13,0,8.452334619
264,X14,0,8.184234774
264,X15,0,8.649974303
264,X16,0,9.916798567
264,X17,0,8.373784608
264,X18,1,8.660600655
264,X19,1,8.189799619
264,X2,1,8.682368589
264,X20,0,8.02975852
264,X21,1,8.609954671
264,X22,0,8.626226952
264,X23,0,8.603370888
264,X24,1,9.35296777
264,X25,1,10.17618288
264,X26,1,9.587337416
264,X27,1,7.932721027
264,X28,1,8.677098709
264,X29,0,8.872346979
264,X3,0,8.177796683
264,X30,1,8.589513853
264,X31,0,8.182838711
264,X32,1,8.656607247
264,X33,1,8.549466752
264,X34,1,8.668539944
264,X35,1,8.4147174
264,X36,1,8.17159948
264,X37,0,8.883778861
264,X38,0,7.905072849
264,X39,1,8.962647948
264,X4,1,11.05753455
264,X40,1,8.416709653
264,X5,0,9.32830117
264,X6,0,8.428799041
264,X7,1,8.545002892
264,X8,1,8.751157981
264,X9,1,8.425516403
265,X1,1,9.175748927
265,X10,0,8.432070938
265,X11,0,8.423761247
265,X12,1,8.127699853
265,X13,0,8.13005904
265,X14,1,8.544419178
265,X15,1,9.215626376
265,X16,1,9.507106063
265,X17,1,8.19753874
265,X18,1,8.328934042
265,X19,0,8.683046556
265,X2,1,9.759559444
265,X20,1,9.286004276
265,X21,1,8.796338933
265,X22,0,8.747352078
265,X23,1,8.255828427
265,X24,1,9.321434419
265,X25,0,7.731492029
265,X26,1,8.410498453
265,X27,1,8.890410552
265,X28,0,8.599326021
265,X29,1,8.336150816
265,X3,0,8.372860821
265,X30,1,8.147288259
265,X31,1,9.173780117
265,X32,1,8.957896735
265,X33,1,8.663714844
265,X34,1,8.868413285
265,X35,1,9.011157458
265,X36,1,8.569785642
265,X37,1,7.91644286
265,X38,0,8.081784207
265,X39,0,8.386628821
265,X4,1,8.627839712
265,X40,0,9.192787213
265,X5,0,8.364508104
265,X6,0,8.892199092
265,X7,0,8.671286727
265,X8,1,8.687610844
265,X9,1,8.471986599
266,X1,1,9.044875932
266,X10,1,8.428580533
266,X11,1,9.03539157
266,X12,0,9.439625028
266,X13,1,8.747510946
266,X14,0,9.087381465
266,X15,1,8.314342343
266,X16,0,9.242904363
266,X17,1,8.392536587
266,X18,1,8.682538124
266,X19,1,8.203851372
266,X2,1,9.43771496
266,X20,0,8.530306831
266,X21,1,8.525954697
266,X22,0,9.426741242
266,X23,1,9.274535084
266,X24,0,8.52098599
266,X25,0,8.064007347
266,X26,0,8.67180091
266,X27,0,8.676587244
266,X28,1,9.618069582
266,X29,0,9.067508723
266,X3,1,9.202509793
266,X30,1,8.256347773
266,X31,1,8.728749873
266,X32,1,8.256347773
266,X33,1,8.106514516
266,X34,1,7.766840537
266,X35,1,8.461257559
266,X36,0,7.900266037
266,X37,0,8.382060517
266,X38,1,8.595264727
266,X39,0,8.23562572
266,X4,1,8.924789361
266,X40,1,8.187021067
266,X5,1,8.634798433
266,X6,0,8.814627555
266,X7,0,8.733594062
266,X8,1,8.678291112
266,X9,0,8.468633001
267,X1,1,9.090091799
267,X10,0,8.565030521
267,X11,1,8.192016915
267,X12,0,10.45129099
267,X13,1,8.453827316
267,X14,1,8.939056445
267,X15,1,8.561401446
267,X16,0,7.988542983
267,X17,0,8.494333897
267,X18,1,8.084562415
267,X19,0,7.936660155
267,X2,1,8.578288291
267,X20,0,8.234034208
267,X21,1,8.392536587
267,X22,0,8.345455428
267,X23,1,8.695171999
267,X24,1,8.781094735
267,X25,0,9.281078386
267,X26,1,7.956476798
267,X27,1,11.00842976
267,X28,1,8.190354404
267,X29,1,8.091321274
267,X3,1,8.348064228
267,X30,0,9.548311485
267,X31,0,7.8671055
267,X32,0,8.326032686
267,X33,1,8.195609567
267,X34,1,8.66112036
267,X35,0,10.77534561
267,X36,1,8.175266104
267,X37,1,8.148734809
267,X38,1,7.733245647
267,X39,1,7.764720545
267,X4,1,8.103494278
267,X40,0,8.019283793
267,X5,1,8.457443187
267,X6,1,7.90359629
267,X7,0,7.988542983
267,X8,1,8.312135108
267,X9,1,8.987071813
268,X1,0,8.600062669
268,X10,1,7.632401127
268,X11,0,7.971430998
268,X12,1,8.115221973
268,X13,0,7.965545573
268,X14,0,7.170888479
268,X15,1,7.425953657
268,X16,0,7.047517221
268,X17,1,7.544861069
268,X18,0,7.306531399
268,X19,0,7.064759028
268,X2,1,8.254788926
268,X20,1,7.291656209
268,X21,0,7.887584032
268,X22,1,7.025538315
268,X23,0,6.608000625
268,X24,0,6.945051064
268,X25,0,7.207118856
268,X26,1,6.711740395
268,X27,1,7.106606138
268,X28,1,7.641084249
268,X29,1,7.036148494
268,X3,1,8.152198016
268,X30,1,6.812345094
268,X31,0,7.124478262
268,X32,0,6.751101469
268,X33,0,6.903747258
268,X34,0,7.109879463
268,X35,1,6.673297968
268,X36,1,7.006695227
268,X37,1,6.677083461
268,X38,0,6.80461452
268,X39,1,8.358666283
268,X4,1,8.126518169
268,X40,0,7.827240902
268,X5,1,7.688455357
268,X6,0,8.572249397
268,X7,0,8.319229939
268,X8,0,7.948385285
268,X9,1,7.44775128
269,X1,1,9.820377646
269,X10,0,9.169310022
269,X11,1,8.583542572
269,X12,1,8.032035314
269,X13,1,8.774931387
269,X14,0,8.315566484
269,X15,0,8.317521996
269,X16,0,7.825245291
269,X17,1,8.641709066
269,X18,1,7.779466967
269,X19,1,8.717845705
269,X2,0,9.244741799
269,X20,0,8.545197388
269,X21,0,8.47428569
269,X22,0,8.969923492
269,X23,0,8.849944227
269,X24,0,8.788593431
269,X25,0,8.192570471
269,X26,1,8.995908761
269,X27,1,8.583355394
269,X28,0,8.40178234
269,X29,0,8.861633598
269,X3,0,9.451402424
269,X30,0,9.568713873
269,X31,1,8.340456013
269,X32,1,8.724207361
269,X33,0,8.757626411
269,X34,1,8.325063694
269,X35,1,9.011645501
269,X36,0,8.59822003
269,X37,1,7.913521017
269,X38,1,8.229511119
269,X39,0,8.44719982
269,X4,0,8.500860537
269,X40,1,8.676416697
269,X5,0,8.275631055
269,X6,1,8.761393485
269,X7,0,8.717845705
269,X8,0,8.888342869
269,X9,1,8.898228986
270,X1,0,8.615770755
270,X10,0,6.787844982
270,X11,0,8.5201887
270,X12,0,7.825245291
270,X13,0,7.716906135
270,X14,0,8.199189359
270,X15,1,6.555356892
270,X16,0,9.234642664
270,X17,1,8.36683531
270,X18,1,7.669495251
270,X19,1,7.53796266
270,X2,0,8.758726608
270,X20,0,7.768956045
270,X21,1,6.366470448
270,X22,0,6.120297419
270,X23,0,5.370638028
270,X24,1,8.683215975
270,X25,1,7.314552832
270,X26,0,6.8134446
270,X27,0,7.799343398
270,X28,1,6.8134446
270,X29,0,7.635303886
270,X3,1,8.422882512
270,X30,1,8.370779173
270,X31,0,6.930494766
270,X32,0,7.599901959
270,X33,1,6.786716951
270,X34,0,7.434847875
270,X35,0,6.530877628
270,X36,0,7.127693699
270,X37,0,6.543911846
270,X38,1,6.555356892
270,X39,1,9.463275708
270,X4,1,7.684783944
270,X40,1,6.495265556
270,X5,1,7.430114139
270,X6,1,8.267192186
270,X7,1,7.713784617
270,X8,1,8.931419805
270,X9,0,7.986844901
271,X1,0,8.864887934
271,X10,0,8.422882512
271,X11,0,8.17159948
271,X12,1,8.273081334
271,X13,0,8.399310151
271,X14,1,7.71154898
271,X15,1,8.29504914
271,X16,1,7.962067309
271,X17,1,8.446770727
271,X18,1,8.178358166
271,X19,0,8.735364401
271,X2,0,8.278428259
271,X20,0,7.730174795
271,X21,0,8.635331719
271,X22,0,8.197814032
271,X23,1,7.989221409
271,X24,1,7.835183755
271,X25,1,7.682021511
271,X26,0,8.191463051
271,X27,1,7.811163385
271,X28,0,8.112527763
271,X29,1,8.014335737
271,X3,1,8.54694615
271,X30,0,7.963112059
271,X31,1,8.812694613
271,X32,0,7.455876687
271,X33,1,8.727616178
271,X34,0,7.867488569
271,X35,1,8.388905171
271,X36,1,7.700747795
271,X37,1,8.524962929
271,X38,0,8.522578664
271,X39,0,7.962067309
271,X4,1,8.446985296
271,X40,0,7.639161172
271,X5,0,9.234447447
271,X6,1,8.155936338
271,X7,1,7.879291485
271,X8,0,8.423761247
271,X9,1,8.267962305
272,X1,1,9.086702732
272,X10,1,8.775394959
272,X11,1,8.300528606
272,X12,1,8.328934042
272,X13,1,8.470101584
272,X14,1,8.383890344
272,X15,0,8.501470231
272,X16,1,8.62299361
272,X17,0,7.558516743
272,X18,0,8.382747095
272,X19,0,8.334711622
272,X2,1,9.027858802
272,X20,0,7.938088727
272,X21,1,8.034306936
272,X22,0,8.166500319
272,X23,1,8.574518258
272,X24,0,8.776630098
272,X25,0,8.402904045
272,X26,0,8.168769824
272,X27,1,8.522976436
272,X28,1,8.745125259
272,X29,1,8.188966864
272,X3,1,9.002331708
272,X30,1,8.303504799
272,X31,1,7.860956365
272,X32,0,8.152198016
272,X33,1,7.801800402
272,X34,0,8.221478947
272,X35,1,8.427706025
272,X36,0,7.802618063
272,X37,1,8.250097753
272,X38,1,7.745002804
272,X39,0,8.709960006
272,X4,1,8.721439306
272,X40,0,8.239329428
272,X5,0,8.502891407
272,X6,1,7.998335396
272,X7,1,8.755264763
272,X8,1,8.018625465
272,X9,0,8.814330423
273,X1,0,9.097955241
273,X10,1,9.385217622
273,X11,0,8.843182098
273,X12,0,8.956608739
273,X13,0,7.956827122
273,X14,1,8.937875265
273,X15,1,9.147507063
273,X16,1,8.521782644
273,X17,0,8.747510946
273,X18,0,9.55414282
273,X19,1,8.438799124
273,X2,0,8.676416697
273,X20,1,8.311643949
273,X21,1,8.225235324
273,X22,0,8.801920904
273,X23,1,9.048174321
273,X24,1,9.061144066
273,X25,0,7.620705087
273,X26,1,9.037771107
273,X27,1,12.25417686
273,X28,0,7.616283562
273,X29,0,7.654917048
273,X3,0,9.226804098
273,X30,1,8.236155662
273,X31,0,8.112227958
273,X32,1,9.501740524
273,X33,0,8.700680735
273,X34,0,8.92305822
273,X35,0,8.416046009
273,X36,1,8.550047528
273,X37,0,8.961750799
273,X38,1,8.604287898
273,X39,0,8.499029221
273,X4,1,10.00635998
273,X40,1,8.888342869
273,X5,1,9.134646528
273,X6,1,9.073145133
273,X7,1,8.114623886
273,X8,1,8.526549286
273,X9,1,8.852378887
274,X1,1,8.908694593
274,X10,0,8.929170383
274,X11,1,8.831711918
274,X12,0,8.44719982
274,X13,1,9.2623634
274,X14,1,8.863757192
274,X15,1,8.42156296
274,X16,0,8.545586266
274,X17,0,10.28633207
274,X18,0,7.947678571
274,X19,1,7.382124366
274,X2,1,9.459307603
274,X20,0,7.950854858
274,X21,1,8.06117136
274,X22,1,8.305731145
274,X23,1,8.110727583
274,X24,1,7.750184162
274,X25,1,7.249215057
274,X26,0,8.248529125
274,X27,0,7.249215057
274,X28,1,8.816705016
274,X29,0,8.230577217
274,X3,1,9.062304293
274,X30,1,5.402677382
274,X31,1,7.291656209
274,X32,0,7.552762084
274,X33,0,8.561018671
274,X34,0,7.887208586
274,X35,1,9.212038929
274,X36,0,7.856706793
274,X37,1,8.126518169
274,X38,0,8.238008249
274,X39,1,9.995382817
274,X4,1,8.529516941
274,X40,0,9.221972456
274,X5,1,8.719970757
274,X6,0,8.441822884
274,X7,1,8.240385116
274,X8,1,8.779557456
274,X9,1,9.08873755
275,X1,0,8.928242678
275,X10,1,7.963807953
275,X11,0,8.611229833
275,X12,1,8.128290172
275,X13,0,7.480428306
275,X14,0,8.008698183
275,X15,1,8.529714472
275,X16,0,7.829630389
275,X17,1,9.004913941
275,X18,1,8.024534872
275,X19,1,8.131824785
275,X2,0,7.879669915
275,X20,1,7.757478767
275,X21,1,7.252053952
275,X22,0,8.502485563
275,X23,0,7.884952946
275,X24,0,7.913155186
275,X25,0,7.869019376
275,X26,0,7.946263644
275,X27,0,7.993282328
275,X28,0,8.799661697
275,X29,0,6.983789965
275,X3,1,8.280711076
275,X30,1,7.340186835
275,X31,0,7.764296006
275,X32,1,7.874358825
275,X33,1,7.946263644
275,X34,1,7.641564441
275,X35,1,8.176672772
275,X36,1,7.021083964
275,X37,1,7.029087564
275,X38,1,6.993015123
275,X39,1,7.44716836
275,X4,1,8.417814747
275,X40,1,8.670943791
275,X5,0,8.023224685
275,X6,0,8.065893547
275,X7,1,7.819636302
275,X8,1,8.151044946
275,X9,1,8.355379895
276,X1,0,9.055439411
276,X10,1,8.902591637
276,X11,0,9.532351405
276,X12,1,8.709960006
276,X13,0,8.88086361
276,X14,1,9.405002141
276,X15,0,8.913146539
276,X16,1,8.591929538
276,X17,0,8.56674497
276,X18,1,9.019542997
276,X19,1,8.911799556
276,X2,1,8.826734598
276,X20,0,8.50471567
276,X21,0,8.985445288
276,X22,1,8.674709629
276,X23,0,8.906122331
276,X24,1,8.819960901
276,X25,0,7.955425089
276,X26,0,8.772455373
276,X27,0,9.259320994
276,X28,0,8.620832226
276,X29,0,9.426580147
276,X3,0,9.034676603
276,X30,0,8.512582579
276,X31,0,9.019905995
276,X32,0,8.960210956
276,X33,0,9.012986392
276,X34,1,8.291045131
276,X35,0,9.176576742
276,X36,1,8.914626128
276,X37,0,8.473659189
276,X38,0,8.680501809
276,X39,0,9.151014906
276,X4,1,8.669399124
276,X40,1,9.060795735
276,X5,1,8.81936971
276,X6,0,9.112065803
276,X7,0,9.13884437
276,X8,1,9.171495588
276,X9,1,9.265112608
277,X1,1,8.66077392
277,X10,1,7.757906208
277,X11,0,7.177782416
277,X12,1,6.995766156
277,X13,1,7.988882253
277,X14,1,8.089789176
277,X15,1,7.923348212
277,X16,1,8.232174236
277,X17,1,9.01833205
277,X18,0,6.754604099
277,X19,1,6.89060912
277,X2,1,7.917900586
277,X20,1,6.576469569
277,X21,0,6.410174882
277,X22,0,7.457032089
277,X23,0,6.618738984
277,X24,0,6.966024187
277,X25,1,7.591357047
277,X26,1,8.215276959
277,X27,1,7.945909599
277,X28,0,7.840706452
277,X29,0,7.951559331
277,X3,1,8.005033345
277,X30,0,8.215276959
277,X31,1,7.077498054
277,X32,1,7.391415235
277,X33,1,7.372118028
277,X34,0,7.883069351
277,X35,0,7.311886164
277,X36,0,7.247080585
277,X37,1,6.937314081
277,X38,0,6.790097236
277,X39,0,7.622174595
277,X4,1,7.703007682
277,X40,0,7.660114319
277,X5,0,8.630521877
277,X6,1,7.865187954
277,X7,0,8.140898461
277,X8,0,8.602453035
277,X9,1,7.853216388
278,X1,1,8.328692584
278,X10,1,7.825644732
278,X11,1,7.277247727
278,X12,1,7.979338895
278,X13,1,8.271548375
278,X14,1,7.636752112
278,X15,0,7.911690521
278,X16,0,7.35372233
278,X17,0,7.584264818
278,X18,0,7.878155337
278,X19,1,7.636752112
278,X2,1,7.739794458
278,X20,0,7.363279587
278,X21,0,7.132497552
278,X22,1,7.68386398
278,X23,0,6.752270376
278,X24,0,6.265301213
278,X25,1,6.318968114
278,X26,0,6.572282543
278,X27,0,6.272877007
278,X28,0,6.142037406
278,X29,0,6.086774727
278,X3,0,7.553286606
278,X30,0,6.109247583
278,X31,1,6.184148891
278,X32,0,7.584264818
278,X33,1,8.38526052
278,X34,1,6.835184586
278,X35,1,7.284134806
278,X36,1,6.985641818
278,X37,1,6.224558429
278,X38,0,7.237778192
278,X39,1,6.345636361
278,X4,1,7.849323818
278,X40,1,6.075346031
278,X5,1,8.038834758
278,X6,0,8.559102594
278,X7,0,8.073714641
278,X8,0,8.365439636
278,X9,1,7.612336837
279,X1,1,8.700014623
279,X10,0,7.945909599
279,X11,1,8.709630082
279,X12,0,8.405591015
279,X13,0,8.458504195
279,X14,0,7.268920128
279,X15,0,7.424761762
279,X16,0,7.202661197
279,X17,0,6.925595197
279,X18,1,8.095293777
279,X19,0,7.844632644
279,X2,1,8.183118079
279,X20,1,8.333991247
279,X21,0,7.883446354
279,X22,1,8.101071503
279,X23,1,7.907651595
279,X24,1,8.074960359
279,X25,1,7.881937489
279,X26,0,8.201111644
279,X27,0,8.143517406
279,X28,1,7.930206207
279,X29,0,7.956126351
279,X3,1,8.070906089
279,X30,0,7.897296473
279,X31,1,7.929486523
279,X32,1,7.841885929
279,X33,1,8.037220031
279,X34,1,8.183676583
279,X35,1,7.87245515
279,X36,0,8.002024818
279,X37,1,8.051022208
279,X38,1,7.822044008
279,X39,1,8.058643712
279,X4,1,8.092851028
279,X40,0,7.122059882
279,X5,1,8.207946941
279,X6,1,8.048468744
279,X7,1,8.354674262
279,X8,1,8.429672594
279,X9,1,7.21964204
280,X1,0,8.333510709
280,X10,0,7.770645234
280,X11,1,7.82084088
280,X12,0,7.815610532
280,X13,1,8.593783794
280,X14,0,7.887584032
280,X15,1,8.018296139
280,X16,1,7.987184748
280,X17,1,7.737180078
280,X18,1,7.307202315
280,X19,0,7.095064377
280,X2,1,7.640603826
280,X20,0,8.01301211
280,X21,1,7.652545693
280,X22,0,7.757051142
280,X23,1,7.484368643
280,X24,1,7.551186867
280,X25,1,8.568076402
280,X26,0,7.304515946
280,X27,0,7.488852956
280,X28,0,7.526717561
280,X29,0,7.6989362
280,X3,1,7.298445102
280,X30,1,7.323830566
280,X31,0,8.561592779
280,X32,1,7.543802868
280,X33,1,8.772300418
280,X34,1,7.084226422
280,X35,1,8.017966703
280,X36,1,7.527255919
280,X37,1,7.313886832
280,X38,1,7.678326357
280,X39,1,7.637234389
280,X4,1,7.363913501
280,X40,1,7.789868559
280,X5,0,8.505323019
280,X6,1,7.716015267
280,X7,0,7.691656823
280,X8,1,8.382518288
280,X9,0,7.890582535
281,X1,1,8.651724084
281,X10,1,7.723562472
281,X11,1,8.095293777
281,X12,1,7.218909708
281,X13,0,8.238272625
281,X14,1,7.892452044
281,X15,0,7.759187439
281,X16,0,8.147577736
281,X17,0,8.26513563
281,X18,0,7.603897969
281,X19,1,7.062191632
281,X2,0,7.77148876
281,X20,1,7.507690078
281,X21,0,8.319229939
281,X22,0,7.503840747
281,X23,1,7.710205194
281,X24,1,7.939515261
281,X25,0,7.752335163
281,X26,0,7.498869734
281,X27,1,6.576469569
281,X28,1,7.878155337
281,X29,1,7.075808864
281,X3,0,5.602118821
281,X30,0,7.309212366
281,X31,0,7.34536484
281,X32,0,8.011355109
281,X33,0,7.824845691
281,X34,1,7.331060305
281,X35,1,8.114324709
281,X36,1,6.914730893
281,X37,0,7.26612878
281,X38,0,7.485491608
281,X39,1,7.387090236
281,X4,1,7.688455357
281,X40,0,6.721425701
281,X5,0,7.147559271
281,X6,0,8.037866235
281,X7,1,7.525639975
281,X8,1,8.064950892
281,X9,0,8.116715625
282,X1,1,8.215547412
282,X10,1,8.500453867
282,X11,0,7.668093709
282,X12,1,8.01268093
282,X13,0,8.062747901
282,X14,0,8.507748733
282,X15,1,7.823645931
282,X16,1,7.902117546
282,X17,0,8.601901919
282,X18,1,7.559559496
282,X19,0,7.728855824
282,X2,1,8.397508348
282,X20,1,7.362010551
282,X21,0,8.718827059
282,X22,0,7.814399634
282,X23,0,7.61332498
282,X24,1,7.77569575
282,X25,0,7.502738211
282,X26,0,7.869783903
282,X27,1,7.549082711
282,X28,1,8.173011312
282,X29,1,7.146772179
282,X3,1,8.134174272
282,X30,0,9.02352875
282,X31,1,7.72841578
282,X32,0,8.085178748
282,X33,1,7.632401127
282,X34,1,7.914252279
282,X35,0,7.609366538
282,X36,1,7.551186867
282,X37,0,7.156176637
282,X38,1,7.541152455
282,X39,0,7.932362154
282,X4,0,8.13123655
282,X40,0,8.151909873
282,X5,1,7.772331575
282,X6,1,7.185387016
282,X7,1,7.804251384
282,X8,1,8.062747901
282,X9,1,8.101374671
283,X1,1,9.93609994
283,X10,1,8.423761247
283,X11,1,8.410053316
283,X12,0,8.573573525
283,X13,1,8.516392871
283,X14,1,8.580167991
283,X15,1,7.668561108
283,X16,1,8.152774053
283,X17,0,8.338305731
283,X18,0,8.105005538
283,X19,0,7.79893331
283,X2,0,8.883362917
283,X20,1,7.909856667
283,X21,1,7.833996342
283,X22,0,7.566311015
283,X23,0,8.401333305
283,X24,0,8.269756948
283,X25,0,8.357259153
283,X26,1,8.217168596
283,X27,1,8.268475389
283,X28,1,8.312871394
283,X29,1,7.955775782
283,X3,0,8.385716829
283,X30,1,8.240648863
283,X31,1,8.735364401
283,X32,1,8.159088655
283,X33,0,8.082402254
283,X34,0,8.343553835
283,X35,1,8.789203094
283,X36,0,7.993282328
283,X37,0,8.34664209
283,X38,1,8.047829357
283,X39,0,7.969357742
283,X4,0,8.004031508
283,X40,0,8.216898581
283,X5,0,8.391629968
283,X6,1,8.208491752
283,X7,1,9.490922298
283,X8,1,8.207946941
283,X9,1,8.537387899
284,X1,0,8.955964118
284,X10,1,9.416215682
284,X11,1,8.29154651
284,X12,0,7.755338813
284,X13,1,8.806723555
284,X14,1,8.336630088
284,X15,0,8.105005538
284,X16,1,8.319229939
284,X17,1,8.194781638
284,X18,1,8.617219505
284,X19,0,8.144969417
284,X2,0,8.130942302
284,X20,0,9.364090972
284,X21,1,8.511979624
284,X22,0,7.837554361
284,X23,0,8.60849535
284,X24,1,8.396154863
284,X25,0,8.465899897
284,X26,0,8.935640334
284,X27,1,8.309430742
284,X28,0,7.724004657
284,X29,1,8.275376375
284,X3,0,8.457443187
284,X30,1,8.181440696
284,X31,1,8.273846933
284,X32,1,8.27512163
284,X33,1,8.445911989
284,X34,0,8.020270473
284,X35,1,10.48843686
284,X36,0,7.920809679
284,X37,1,8.563695025
284,X38,1,8.427268484
284,X39,0,8.681859813
284,X4,0,9.42270605
284,X40,0,8.385716829
284,X5,1,8.718990525
284,X6,0,8.412277021
284,X7,0,8.794521852
284,X8,1,9.139703292
284,X9,1,8.042378005
285,X1,1,8.728587996
285,X2,1,8.648396877
285,X3,1,7.935945103
285,X4,0,8.209580483
285,X5,1,7.786967003
285,X6,0,7.844632644
285,X7,1,8.792549614
285,X8,1,8.001019961
285,X9,0,8.129469765
285,X10,0,7.638198244
285,X11,0,8.146998697
285,X12,1,7.789454566
285,X13,0,8.056743775
285,X14,1,8.449342525
285,X15,1,7.668093709
285,X16,1,8.031385331
285,X17,1,8.003028666
285,X18,1,7.581209826
285,X19,0,7.760040681
285,X20,1,7.966239777
285,X21,0,8.135053909
285,X22,0,7.689828669
285,X23,1,7.948385285
285,X24,0,7.693937326
285,X25,1,8.504513138
285,X26,1,7.911690521
285,X27,1,8.271292653
285,X28,1,8.012018239
285,X29,1,7.718240952
285,X30,0,7.840312983
285,X31,0,8.132412675
285,X32,1,8.035278911
285,X33,1,7.770645234
285,X34,0,8.07059354
285,X35,0,8.262300942
285,X36,1,8.067776196
285,X37,0,7.869019376
285,X38,1,8.252706677
285,X39,0,7.847762537
285,X40,0,8.19753874
286,X1,1,8.571113033
286,X10,1,8.533460164
286,X11,1,8.10832229
286,X12,1,8.461680481
286,X13,1,8.804775259
286,X14,1,8.217978203
286,X15,0,8.245646901
286,X16,1,8.139148679
286,X17,1,8.306225216
286,X18,1,8.004699511
286,X19,0,8.315811132
286,X2,1,8.555066844
286,X20,0,8.317521996
286,X21,1,8.725344925
286,X22,1,8.270269111
286,X23,0,8.355144739
286,X24,0,7.104144093
286,X25,0,7.91644286
286,X26,0,8.614682813
286,X27,1,8.158802491
286,X28,1,7.675081858
286,X29,1,7.739794458
286,X3,1,8.077136639
286,X30,1,8.139148679
286,X31,1,7.999007213
286,X32,1,6.753437919
286,X33,0,8.614138397
286,X34,1,8.239857411
286,X35,1,7.554858521
286,X36,0,8.359837381
286,X37,1,8.083945702
286,X38,0,7.475905969
286,X39,1,7.014814351
286,X4,1,7.72841578
286,X40,0,8.059908335
286,X5,1,7.989560449
286,X6,1,7.980023592
286,X7,0,7.972466016
286,X8,1,8.33014046
286,X9,1,7.636269603
287,X1,1,10.10106711
287,X10,1,8.555644378
287,X11,1,9.544309478
287,X12,1,9.063694792
287,X13,1,9.14729407
287,X14,0,9.004545459
287,X15,1,8.780787468
287,X16,0,9.05532265
287,X17,1,8.752107198
287,X18,0,8.631414336
287,X19,1,8.813438495
287,X2,0,9.541297428
287,X20,0,8.62137301
287,X21,0,8.733110698
287,X22,0,8.910990495
287,X23,0,9.528721373
287,X24,0,9.52566193
287,X25,1,8.817149625
287,X26,1,9.264449698
287,X27,0,9.003685138
287,X28,1,8.90340752
287,X29,1,8.605387202
287,X3,0,8.726481196
287,X30,0,8.571113033
287,X31,0,7.594381243
287,X32,1,8.947806093
287,X33,0,8.394121194
287,X34,1,7.762170607
287,X35,0,6.838405201
287,X36,0,7.567345676
287,X37,0,8.162801353
287,X38,1,8.06714904
287,X39,1,9.256078264
287,X4,1,8.632662441
287,X40,1,9.254644298
287,X5,1,9.381600981
287,X6,0,8.641179171
287,X7,0,8.896861744
287,X8,0,9.955937678
287,X9,0,9.515837804
288,X1,1,8.920923462
288,X10,0,8.315077007
288,X11,1,8.724044746
288,X12,1,8.804325113
288,X13,1,8.563504094
288,X14,1,9.281078386
288,X15,1,8.302761581
288,X16,1,8.889446165
288,X17,1,8.664750756
288,X18,1,8.626047596
288,X19,0,8.169619562
288,X2,1,8.660080679
288,X20,1,8.373553741
288,X21,1,8.232174236
288,X22,1,8.318254329
288,X23,0,8.258163362
288,X24,0,8.775549434
288,X25,1,8.671972245
288,X26,1,8.455104999
288,X27,1,8.262042844
288,X28,0,8.46252579
288,X29,0,8.453401058
288,X3,0,8.579040595
288,X30,0,8.320691571
288,X31,1,8.468633001
288,X32,0,8.206037763
288,X33,1,9.055205875
288,X34,1,8.723394022
288,X35,1,8.483429561
288,X36,1,8.576970395
288,X37,1,8.114623886
288,X38,1,7.983781069
288,X39,1,9.226705726
288,X4,0,8.329658068
288,X40,0,8.213652703
288,X5,0,8.58316818
288,X6,0,8.37609035
288,X7,1,8.649273532
288,X8,0,8.422882512
288,X9,0,10.10442639
289,X1,1,9.766407012
289,X10,1,9.00797936
289,X11,1,8.483429561
289,X12,1,8.302513719
289,X13,1,8.321421587
289,X14,1,8.59858883
289,X15,1,9.011523513
289,X16,1,8.720460513
289,X17,0,9.24009333
289,X18,0,8.332067707
289,X19,0,9.111845125
289,X2,0,8.718990525
289,X20,1,8.065893547
289,X21,0,8.487558386
289,X22,0,8.681011277
289,X23,0,9.101306451
289,X24,0,8.788898309
289,X25,1,8.714239144
289,X26,1,8.572627898
289,X27,1,8.195885391
289,X28,0,8.161945799
289,X29,0,9.347838885
289,X3,0,8.853522561
289,X30,0,9.319553457
289,X31,0,8.65886635
289,X32,1,8.617038526
289,X33,1,8.377011161
289,X34,1,8.518791913
289,X35,1,8.362408978
289,X36,1,8.245909265
289,X37,1,8.70731756
289,X38,1,9.048997222
289,X39,0,8.493310251
289,X4,1,8.679482094
289,X40,1,8.347353412
289,X5,0,8.387084506
289,X6,0,8.120291314
289,X7,0,8.643825842
289,X8,1,8.566554621
289,X9,0,8.598773178
290,X1,1,8.725182495
290,X10,1,8.140023952
290,X11,1,7.62754439
290,X12,0,8.002359546
290,X13,0,9.120415664
290,X14,1,8.668196065
290,X15,0,7.486052618
290,X16,0,7.654443226
290,X17,0,8.358900612
290,X18,0,9.491450899
290,X19,0,8.568646473
290,X2,1,8.885164095
290,X20,0,6.993015123
290,X21,1,6.924612396
290,X22,0,7.914252279
290,X23,0,7.792348924
290,X24,1,7.454719949
290,X25,1,8.096512918
290,X26,1,7.363279587
290,X27,0,7.333023014
290,X28,1,7.257002707
290,X29,1,6.849066283
290,X3,1,9.921032732
290,X30,0,7.283448229
290,X31,0,8.445267452
290,X32,1,7.994294986
290,X33,0,7.336936914
290,X34,0,7.336936914
290,X35,1,7.062191632
290,X36,0,7.271703707
290,X37,0,7.740664402
290,X38,1,6.897704943
290,X39,0,6.761572769
290,X4,0,8.765458532
290,X40,1,6.753437919
290,X5,1,8.868694777
290,X6,1,8.744009988
290,X7,1,8.845921233
290,X8,0,8.420682291
290,X9,1,8.072155308
291,X1,0,8.66974259
291,X2,1,7.899153483
291,X3,0,8.560252681
291,X4,1,8.177515824
291,X5,1,8.351138607
291,X6,0,8.48467
291,X7,1,7.760467029
291,X8,0,7.996317232
291,X9,1,8.371704885
291,X10,0,7.931644021
291,X11,1,8.299285907
291,X12,1,8.361708289
291,X13,1,7.733245647
291,X14,0,7.956827122
291,X15,1,8.521185213
291,X16,0,7.736307097
291,X17,0,7.463363046
291,X18,1,8.437067147
291,X19,0,8.217438538
291,X20,1,7.925157512
291,X21,0,7.845416037
291,X22,0,7.712890961
291,X23,1,7.628031127
291,X24,1,7.895063498
291,X25,1,7.713784617
291,X26,1,8.23164218
291,X27,0,7.519692404
291,X28,1,8.072779333
291,X29,1,7.51479976
291,X30,0,7.81197343
291,X31,0,8.149023868
291,X32,0,7.843064017
291,X33,1,8.137980454
291,X34,0,8.059908335
291,X35,0,7.806696373
291,X36,1,8.06652149
291,X37,1,7.757051142
291,X38,1,7.707062655
291,X39,1,7.544332108
291,X40,0,8.009363077
292,X1,0,8.261526448
292,X2,0,7.478734826
292,X3,0,7.6666902
292,X4,1,8.003697339
292,X5,1,7.92551898
292,X6,1,8.627660644
292,X7,0,7.858640656
292,X8,1,7.674152921
292,X9,0,7.928045601
292,X10,1,7.928406026
292,X11,0,8.216088099
292,X12,1,7.652070746
292,X13,1,8.302761581
292,X14,1,8.111928063
292,X15,0,6.580639137
292,X16,1,7.733683571
292,X17,1,7.713337889
292,X18,0,8.262558973
292,X19,0,7.953669779
292,X20,0,7.727975542
292,X21,0,6.891625897
292,X22,1,6.828712072
292,X23,0,6.749931194
292,X24,1,8.004365565
292,X25,1,6.624065228
292,X26,0,7.513709248
292,X27,1,7.401231264
292,X28,0,7.358193753
292,X29,1,6.852242569
292,X30,1,7.452982329
292,X31,1,8.191740021
292,X32,0,7.552237288
292,X33,0,8.237743804
292,X34,0,8.333751007
292,X35,0,6.523562306
292,X36,0,6.910750788
292,X37,0,7.972810784
292,X38,1,7.656810091
292,X39,1,7.01301579
292,X40,1,7.397561536
293,X1,0,8.944550246
293,X10,1,8.409162447
293,X11,1,8.793915424
293,X12,1,8.58316818
293,X13,1,8.549853974
293,X14,1,8.472823244
293,X15,0,8.30498958
293,X16,1,7.983440063
293,X17,1,8.181160858
293,X18,1,8.666991557
293,X19,1,7.964503364
293,X2,1,8.528726427
293,X20,1,8.115520882
293,X21,1,8.249052274
293,X22,0,8.60153434
293,X23,1,8.709300049
293,X24,0,8.423541635
293,X25,0,8.910045761
293,X26,1,8.20028826
293,X27,1,8.398409655
293,X28,1,8.5201887
293,X29,1,8.274102002
293,X3,1,8.202208436
293,X30,0,8.730690366
293,X31,1,9.120087383
293,X32,1,8.412277021
293,X33,1,8.052614819
293,X34,0,8.543445563
293,X35,1,8.818630229
293,X36,0,8.630521877
293,X37,0,8.574329383
293,X38,1,8.36124089
293,X39,1,8.069342367
293,X4,1,8.58485184
293,X40,1,8.222553638
293,X5,0,8.451053389
293,X6,1,8.455955882
293,X7,1,8.307705967
293,X8,1,8.554296279
293,X9,1,7.579167967
294,X1,0,9.690418087
294,X10,0,8.436200032
294,X11,0,9.550377675
294,X12,0,8.753371421
294,X13,0,9.124455633
294,X14,1,8.53542596
294,X15,1,8.325548307
294,X16,1,9.881088558
294,X17,0,8.527935288
294,X18,0,8.913819351
294,X19,1,9.728121748
294,X2,1,8.76655015
294,X20,0,8.02059915
294,X21,1,8.531687638
294,X22,0,8.201385955
294,X23,0,9.437794619
294,X24,0,9.324026136
294,X25,1,9.132486933
294,X26,0,9.148677712
294,X27,1,9.170143182
294,X28,0,9.177610547
294,X29,1,8.465899897
294,X3,1,8.883917471
294,X30,0,8.322637097
294,X31,0,9.937019036
294,X32,1,9.107532152
294,X33,1,8.303504799
294,X34,0,8.99788945
294,X35,1,9.424322081
294,X36,0,9.662370949
294,X37,0,8.285008895
294,X38,0,8.73439915
294,X39,0,8.469472455
294,X4,1,8.387084506
294,X40,1,8.169619562
294,X5,0,9.485089169
294,X6,1,8.539345996
294,X7,1,9.278372782
294,X8,0,9.45766909
294,X9,1,9.419871696
295,X1,1,8.545780648
295,X10,0,6.391917113
295,X11,0,6.762729507
295,X12,0,8.523175263
295,X13,1,7.056175284
295,X14,1,7.408530567
295,X15,0,6.520621128
295,X16,0,6.575075841
295,X17,0,6.171700597
295,X18,0,6.107022888
295,X19,1,6.315358002
295,X2,1,7.227662499
295,X20,0,6.453624999
295,X21,0,6.317164687
295,X22,1,7.836764783
295,X23,0,6.329720906
295,X24,0,7.622174595
295,X25,1,6.464588304
295,X26,0,6.416732283
295,X27,0,6.475432717
295,X28,0,6.920671504
295,X29,1,7.385851078
295,X3,1,6.891625897
295,X30,1,6.844815479
295,X31,1,7.845416037
295,X32,1,7.502738211
295,X33,1,7.503289631
295,X34,1,6.672032945
295,X35,1,6.682108597
295,X36,0,6.532334292
295,X37,0,6.643789733
295,X38,0,6.442540166
295,X39,0,6.380122537
295,X4,0,6.563855527
295,X40,1,7.490529402
295,X5,1,6.498282149
295,X6,1,6.563855527
295,X7,1,6.429719478
295,X8,1,6.317164687
295,X9,1,6.573680167
296,X1,0,8.851377098
296,X10,1,8.222553638
296,X11,0,8.855948534
296,X12,1,8.563504094
296,X13,1,8.103191752
296,X14,0,8.189522111
296,X15,1,7.668093709
296,X16,1,8.180880942
296,X17,0,8.850947452
296,X18,1,8.590071837
296,X19,1,9.260272741
296,X2,0,7.736307097
296,X20,1,8.110727583
296,X21,0,8.451053389
296,X22,1,8.569785642
296,X23,0,8.141772205
296,X24,1,8.403352375
296,X25,1,8.078067882
296,X26,1,8.371936179
296,X27,1,8.116715625
296,X28,1,8.676075516
296,X29,1,8.72972059
296,X3,1,8.053251154
296,X30,0,7.950854858
296,X31,1,8.659386957
296,X32,1,8.545197388
296,X33,0,8.161375023
296,X34,1,8.301521655
296,X35,1,8.045588281
296,X36,1,8.333270353
296,X37,0,8.403800504
296,X38,0,8.176953868
296,X39,1,8.299783172
296,X4,0,8.479698987
296,X40,1,8.033334016
296,X5,1,8.67795057
296,X6,0,8.832441792
296,X7,0,8.428361978
296,X8,0,8.387084506
296,X9,1,8.01301211
297,X1,1,9.301916315
297,X10,0,7.775275846
297,X11,1,8.799209242
297,X12,0,8.137688185
297,X13,0,7.947678571
297,X14,1,8.116417073
297,X15,0,8.545002892
297,X16,0,8.631235907
297,X17,0,8.555836815
297,X18,1,9.374922172
297,X19,0,8.216088099
297,X2,1,9.31551087
297,X20,1,7.975220839
297,X21,1,7.821242084
297,X22,0,7.871311203
297,X23,1,7.559038255
297,X24,0,8.829079953
297,X25,1,8.420902531
297,X26,0,8.453827316
297,X27,0,8.059908335
297,X28,1,8.413830678
297,X29,1,8.642768014
297,X3,1,8.445482344
297,X30,1,9.443830215
297,X31,0,8.525954697
297,X32,1,7.630946581
297,X33,0,8.383204551
297,X34,0,8.531096097
297,X35,0,7.319202459
297,X36,1,8.156223323
297,X37,1,8.522976436
297,X38,1,9.274347502
297,X39,0,8.104703468
297,X4,1,8.324821299
297,X40,0,7.821242084
297,X5,1,8.955319082
297,X6,0,8.436633684
297,X7,1,8.401333305
297,X8,0,7.754910272
297,X9,0,8.821879863
298,X1,1,8.442469645
298,X10,0,7.578145472
298,X11,0,8.26178468
298,X12,1,8.07059354
298,X13,0,8.792853289
298,X14,1,8.469891918
298,X15,0,8.085486772
298,X16,1,8.486115236
298,X17,0,8.043984431
298,X18,1,8.151621647
298,X19,1,8.185071478
298,X2,0,8.715880102
298,X20,0,8.50795061
298,X21,1,8.201660191
298,X22,0,7.914617709
298,X23,1,8.461680481
298,X24,1,7.99530662
298,X25,1,8.129469765
298,X26,0,7.9686657
298,X27,1,8.495560891
298,X28,1,7.963112059
298,X29,1,8.433159196
298,X3,0,8.565792861
298,X30,0,8.043984431
298,X31,1,8.023879993
298,X32,0,8.090402297
298,X33,1,7.075808864
298,X34,1,7.570958583
298,X35,1,8.059276223
298,X36,1,8.810012048
298,X37,1,7.080867897
298,X38,0,8.018625465
298,X39,0,7.870547845
298,X4,1,8.222285074
298,X40,1,7.923348212
298,X5,1,8.045908742
298,X6,1,8.308199063
298,X7,1,8.354909528
298,X8,1,8.118207049
298,X9,1,8.361941906
299,X1,1,8.38526052
299,X10,0,8.395929104
299,X11,1,8.468633001
299,X12,0,7.706612914
299,X13,0,8.44719982
299,X14,1,8.244334048
299,X15,1,8.005033345
299,X16,0,8.561592779
299,X17,1,8.331827004
299,X18,1,7.779466967
299,X19,0,8.082402254
299,X2,1,8.248529125
299,X20,1,8.485083137
299,X21,0,8.395477433
299,X22,1,8.593227878
299,X23,1,8.104099056
299,X24,0,8.628734566
299,X25,1,8.315077007
299,X26,0,8.467372496
299,X27,1,7.982757702
299,X28,1,8.431417414
299,X29,1,8.199189359
299,X3,1,8.192293731
299,X30,1,8.099857911
299,X31,1,7.619724214
299,X32,0,8.646992629
299,X33,0,8.098034756
299,X34,1,8.192570471
299,X35,0,8.822027323
299,X36,1,8.097730574
299,X37,1,8.090095783
299,X38,0,8.403128235
299,X39,1,8.153925132
299,X4,1,8.797548488
299,X40,1,8.61866616
299,X5,0,8.057694195
299,X6,1,8.674538762
299,X7,0,8.605387202
299,X8,1,8.385944905
299,X9,0,8.81254577
300,X1,0,8.867286524
300,X2,0,7.989899375
300,X3,0,9.803446198
300,X4,0,9.421816118
300,X5,0,8.185350223
300,X6,0,9.34696697
300,X7,1,8.720623711
300,X8,1,8.104099056
300,X9,0,7.669495251
300,X10,0,8.311643949
300,X11,1,8.350429974
300,X12,1,7.261927093
300,X13,0,8.267192186
300,X14,1,7.766840537
300,X15,1,7.960672608
300,X16,1,7.966586698
300,X17,1,7.744136628
300,X18,1,8.15075647
300,X19,0,7.950854858
300,X20,0,7.534228326
300,X21,1,7.588829878
300,X22,0,8.751316247
300,X23,0,7.853216388
300,X24,0,7.878534196
300,X25,1,8.717027173
300,X26,0,7.997999318
300,X27,0,7.470224136
300,X28,1,7.620705087
300,X29,1,7.685243608
300,X30,0,8.021584533
300,X31,1,7.902487437
300,X32,1,7.994632311
300,X33,1,7.766840537
300,X34,1,8.181720455
300,X35,0,8.214465161
300,X36,1,8.088868789
300,X37,0,7.719573989
300,X38,1,8.631057448
300,X39,1,9.089527752
300,X40,0,7.001245622
301,X1,0,8.251924714
301,X2,0,8.157943507
301,X3,0,8.348301055
301,X4,0,7.872836175
301,X5,0,9.160099156
301,X6,0,8.192016915
301,X7,0,8.175266104
301,X8,1,8.53503311
301,X9,0,7.731492029
301,X10,1,7.869019376
301,X11,0,7.878155337
301,X12,1,8.51318517
301,X13,1,9.029178143
301,X14,0,7.474204806
301,X15,0,8.185350223
301,X16,1,8.052614819
301,X17,0,7.797291274
301,X18,1,7.613818685
301,X19,0,7.918264686
301,X20,1,8.188689124
301,X21,1,7.873217055
301,X22,1,7.913886715
301,X23,1,8.083328609
301,X24,1,8.348537825
301,X25,0,8.296047643
301,X26,0,7.772752716
301,X27,1,8.246958033
301,X28,1,8.079618029
301,X29,1,8.739376282
301,X30,0,7.892078421
301,X31,1,8.991188842
301,X32,0,7.918628653
301,X33,1,7.388946098
301,X34,0,7.64921632
301,X35,0,7.763021309
301,X36,1,7.725771442
301,X37,1,7.812782819
301,X38,1,7.922623574
301,X39,1,7.520776415
301,X40,0,8.002024818
302,X1,1,8.785692444
302,X2,0,8.595264727
302,X3,1,8.566554621
302,X4,1,8.784621535
302,X5,0,8.534050308
302,X6,0,8.685753833
302,X7,1,8.938794081
302,X8,1,9.671114036
302,X9,0,9.545454544
302,X10,1,8.003028666
302,X11,0,8.981932991
302,X12,1,8.248267447
302,X13,1,8.42463921
302,X14,1,8.248529125
302,X15,1,8.628734566
302,X16,1,8.752423404
302,X17,1,8.681690163
302,X18,1,8.515191189
302,X19,1,8.761236807
302,X20,1,8.353732642
302,X21,0,8.871505346
302,X22,0,9.44564962
302,X23,0,9.527629789
302,X24,0,9.252441548
302,X25,1,8.754949455
302,X26,1,7.981391582
302,X27,0,8.531096097
302,X28,0,8.565030521
302,X29,1,8.114324709
302,X30,0,9.225918402
302,X31,0,8.669399124
302,X32,0,8.599694413
302,X33,1,8.309430742
302,X34,1,8.785845338
302,X35,0,8.902455592
302,X36,1,8.383204551
302,X37,1,8.545002892
302,X38,1,8.560635749
302,X39,1,8.374246182
302,X40,1,8.445482344
303,X1,1,9.515764126
303,X2,1,8.260234292
303,X3,1,7.707062655
303,X4,1,8.537583881
303,X5,1,8.217978203
303,X6,1,7.861727078
303,X7,1,7.952263309
303,X8,0,7.934513464
303,X9,1,7.951207156
303,X10,1,8.465899897
303,X11,0,7.955074273
303,X12,0,8.627302414
303,X13,1,8.57508467
303,X14,0,8.246958033
303,X15,0,8.739376282
303,X16,1,7.952615112
303,X17,1,7.820037989
303,X18,0,7.917536354
303,X19,1,8.828787084
303,X20,1,8.585972707
303,X21,1,8.238272625
303,X22,0,8.203030242
303,X23,1,7.897296473
303,X24,1,6.874198495
303,X25,1,7.162397497
303,X26,1,9.672248824
303,X27,0,8.996528148
303,X28,1,8.893023494
303,X29,0,9.167432871
303,X30,0,8.070280893
303,X31,1,8.713910628
303,X32,0,8.932872622
303,X33,0,8.986071187
303,X34,1,8.099554282
303,X35,1,7.856319571
303,X36,1,9.236884927
303,X37,0,6.967909202
303,X38,1,6.746412129
303,X39,0,9.277438116
303,X40,1,6.790097236
304,X1,0,8.604287898
304,X2,1,8.014004995
304,X3,0,8.966483779
304,X4,1,8.01268093
304,X5,0,8.371242136
304,X6,0,8.594154233
304,X7,0,8.199464198
304,X8,0,8.496378052
304,X9,1,8.096817471
304,X10,0,7.928766322
304,X11,1,8.805375139
304,X12,1,8.607033895
304,X13,1,7.828436359
304,X14,0,8.393894975
304,X15,0,8.121480375
304,X16,0,9.497472293
304,X17,0,7.986844901
304,X18,1,7.74109909
304,X19,1,8.342839804
304,X20,0,8.304247465
304,X21,0,8.051978079
304,X22,0,8.260234292
304,X23,1,8.450198323
304,X24,1,7.630946581
304,X25,0,8.400209836
304,X26,1,7.350516172
304,X27,0,7.97074039
304,X28,1,9.098514557
304,X29,0,7.828038032
304,X30,0,8.23110984
304,X31,1,7.458186157
304,X32,0,8.182838711
304,X33,1,8.454466362
304,X34,0,8.338783971
304,X35,1,7.372746366
304,X36,1,8.023879993
304,X37,1,8.049746291
304,X38,0,7.883069351
304,X39,1,7.268223021
304,X40,0,8.623713035
305,X1,0,7.966239777
305,X2,0,7.962067309
305,X3,0,8.364973978
305,X4,1,7.952966791
305,X5,0,7.608374474
305,X6,0,7.69211334
305,X7,1,7.592366129
305,X8,1,8.446985296
305,X9,1,7.944492164
305,X10,1,8.275885669
305,X11,1,10.14568836
305,X12,1,8.045908742
305,X13,0,7.017506143
305,X14,0,7.835974582
305,X15,0,7.297768283
305,X16,0,7.559559496
305,X17,1,7.540621529
305,X18,1,7.009408933
305,X19,1,7.840706452
305,X20,0,7.843456404
305,X21,1,7.17395832
305,X22,0,7.527255919
305,X23,0,7.471363088
305,X24,1,7.035268599
305,X25,0,7.745002804
305,X26,1,8.055475142
305,X27,1,7.303843225
305,X28,0,7.297768283
305,X29,1,7.525100746
305,X30,0,6.617402978
305,X31,0,7.474204806
305,X32,0,7.006695227
305,X33,1,7.273092596
305,X34,1,6.69950034
305,X35,1,6.994849986
305,X36,1,6.930494766
305,X37,1,7.115582126
305,X38,0,7.406103381
305,X39,1,7.840706452
305,X40,0,7.317212408
306,X1,0,8.517193191
306,X2,0,10.80092161
306,X3,0,9.749928364
306,X4,1,9.743201423
306,X5,1,9.927301731
306,X6,1,8.529516941
306,X7,1,9.092344814
306,X8,1,9.492582676
306,X9,1,9.04993685
306,X10,1,9.245321341
306,X11,0,9.581628028
306,X12,0,9.572828387
306,X13,1,9.682716185
306,X14,1,9.59607885
306,X15,1,9.737373935
306,X16,1,10.03897952
306,X17,0,9.174920427
306,X18,0,9.481435641
306,X19,1,9.312535884
306,X20,1,9.404096306
306,X21,0,8.545780648
306,X22,0,8.537387899
306,X23,1,9.600285668
306,X24,1,9.685518092
306,X25,0,9.677966176
306,X26,1,9.083642719
306,X27,1,8.455104999
306,X28,1,8.665268309
306,X29,0,9.749345206
306,X30,1,9.683775607
306,X31,1,9.570459378
306,X32,1,9.628919119
306,X33,0,9.45922964
306,X34,0,9.019179867
306,X35,0,9.009814111
306,X36,0,9.79640333
306,X37,1,9.930567557
306,X38,0,9.240869577
306,X39,1,9.43867045
306,X40,0,9.805984971
307,X1,1,9.538636417
307,X2,1,8.354674262
307,X3,1,8.463370385
307,X4,1,8.596189198
307,X5,0,9.403766709
307,X6,0,8.691146499
307,X7,1,8.297792626
307,X8,0,8.416488487
307,X9,0,9.021960501
307,X10,1,8.283241441
307,X11,1,7.654443226
307,X12,1,8.392763113
307,X13,1,7.902857191
307,X14,1,10.25192365
307,X15,1,7.781973234
307,X16,0,8.03106018
307,X17,0,8.198089249
307,X18,0,8.644354337
307,X19,0,10.09810816
307,X20,1,9.763650607
307,X21,0,8.459987718
307,X22,1,7.938445551
307,X23,0,8.952087644
307,X24,1,8.693831965
307,X25,0,8.626406276
307,X26,1,9.775995032
307,X27,1,8.881558489
307,X28,1,8.673170773
307,X29,0,8.196712407
307,X30,1,7.993957548
307,X31,0,7.922985959
307,X32,1,8.474911799
307,X33,1,8.283241441
307,X34,0,8.26513563
307,X35,1,9.531336323
307,X36,1,8.345217927
307,X37,0,8.530109417
307,X38,0,8.383661799
307,X39,0,8.19836439
307,X40,1,9.156306483
308,X1,1,8.807920622
308,X2,0,8.551401363
308,X3,1,8.572627898
308,X4,0,7.981391582
308,X5,0,8.075582637
308,X6,1,10.08067093
308,X7,0,8.419359831
308,X8,1,8.262816938
308,X9,0,8.722742874
308,X10,1,8.766394277
308,X11,0,8.133000219
308,X12,0,8.839421608
308,X13,1,8.946114376
308,X14,1,8.336390481
308,X15,1,8.499232866
308,X16,0,8.545197388
308,X17,0,8.142354277
308,X18,0,8.047509511
308,X19,0,8.889170455
308,X20,1,8.651374373
308,X21,1,8.484256691
308,X22,0,8.465899897
308,X23,1,8.167351987
308,X24,1,8.180880942
308,X25,1,8.713582005
308,X26,0,8.906799884
308,X27,1,8.005367067
308,X28,1,8.540519017
308,X29,0,8.405367376
308,X30,0,8.537387899
308,X31,1,7.962067309
308,X32,1,9.020268862
308,X33,0,7.938802248
308,X34,1,8.475746002
308,X35,1,8.480736654
308,X36,1,8.039802344
308,X37,1,8.279697134
308,X38,1,7.945201132
308,X39,1,8.455743229
308,X40,0,7.814399634
309,X1,1,10.69196764
309,X2,0,7.912423121
309,X3,0,8.468633001
309,X4,1,7.631431665
309,X5,0,9.904287233
309,X6,0,9.425371103
309,X7,0,8.160232492
309,X8,1,7.702556113
309,X9,0,8.206310726
309,X10,1,8.904494329
309,X11,0,7.333676396
309,X12,0,9.516500666
309,X13,0,7.54009032
309,X14,1,9.901736019
309,X15,1,10.13582868
309,X16,1,8.659560433
309,X17,1,8.027802848
309,X18,0,8.763897007
309,X19,1,9.625623789
309,X20,1,8.206583614
309,X21,1,10.00996245
309,X22,0,9.681218619
309,X23,1,8.298041661
309,X24,1,10.35923378
309,X25,1,8.015987811
309,X26,1,8.702177866
309,X27,0,9.09907356
309,X28,0,10.66424665
309,X29,0,8.816853241
309,X30,0,8.022568947
309,X31,1,9.694616661
309,X32,1,8.059908335
309,X33,0,11.29262786
309,X34,1,7.458762692
309,X35,1,8.038834758
309,X36,1,8.206583614
309,X37,0,11.0329523
309,X38,1,8.306225216
309,X39,0,7.977968093
309,X40,0,8.422442855
310,X1,1,7.940227765
310,X2,1,8.123557835
310,X3,1,8.271548375
310,X4,1,7.634820678
310,X5,0,8.593413217
310,X6,1,8.132412675
310,X7,1,7.875499292
310,X8,1,8.271804031
310,X9,1,7.448916103
310,X10,1,7.880804345
310,X11,1,8.992806059
310,X12,1,8.326274787
310,X13,0,8.422003004
310,X14,1,8.217438538
310,X15,1,7.763446389
310,X16,1,7.738923757
310,X17,1,7.752764809
310,X18,1,7.021976423
310,X19,1,7.994632311
310,X20,0,7.556950572
310,X21,0,7.748028524
310,X22,0,7.810758117
310,X23,1,7.971085754
310,X24,0,7.971776123
310,X25,1,7.716906135
310,X26,1,8.089482474
310,X27,1,7.599901959
310,X28,0,8.14293601
310,X29,1,7.673223121
310,X30,0,8.187577396
310,X31,1,7.475339237
310,X32,1,8.038512021
310,X33,1,7.41397029
310,X34,1,7.649692624
310,X35,1,7.52131798
310,X36,0,7.589841512
310,X37,1,7.837554361
310,X38,0,8.108924156
310,X39,0,7.959625305
310,X40,1,8.644882553
311,X1,0,8.857372833
311,X2,0,8.432288684
311,X3,0,8.368461138
311,X4,1,8.326032686
311,X5,1,8.048468744
311,X6,0,7.882692206
311,X7,1,7.923710334
311,X8,1,8.057694195
311,X9,1,8.460411177
311,X10,1,7.963807953
311,X11,0,8.329899293
311,X12,1,8.134760782
311,X13,1,7.960672608
311,X14,1,7.334981879
311,X15,0,7.663407665
311,X16,0,8.24117615
311,X17,1,8.428580533
311,X18,0,8.239329428
311,X19,1,8.599141774
311,X20,0,8.517992872
311,X21,1,7.941295571
311,X22,1,8.340933226
311,X23,0,8.411610429
311,X24,1,7.977625099
311,X25,1,7.791935957
311,X26,1,7.799753318
311,X27,0,9.211239967
311,X28,1,8.082402254
311,X29,1,7.785305183
311,X30,0,7.273092596
311,X31,1,7.414572881
311,X32,1,8.26513563
311,X33,1,8.023224685
311,X34,1,7.997326823
311,X35,1,7.695757991
311,X36,0,7.105786129
311,X37,1,8.462103225
311,X38,1,7.929126487
311,X39,1,8.220133957
311,X40,1,8.446556112
312,X1,1,8.468423027
312,X2,0,8.609225277
312,X3,1,8.661985936
312,X4,0,8.576781983
312,X5,1,8.443331343
312,X6,0,8.698013622
312,X7,0,8.656607247
312,X8,0,8.444192299
312,X9,1,8.533460164
312,X10,1,8.661985936
312,X11,0,8.480529207
312,X12,1,8.341410211
312,X13,1,8.642415156
312,X14,0,8.823942327
312,X15,1,8.157370441
312,X16,1,8.273081334
312,X17,0,8.526152933
312,X18,0,8.446770727
312,X19,1,8.257904193
312,X20,0,8.154212695
312,X21,1,8.559294367
312,X22,1,8.324093761
312,X23,0,8.752265314
312,X24,1,8.671629545
312,X25,0,8.108924156
312,X26,1,8.632484236
312,X27,0,8.712924435
312,X28,0,8.290543501
312,X29,1,8.162801353
312,X30,1,8.884610232
312,X31,0,8.470520783
312,X32,0,8.618304693
312,X33,0,8.24143969
312,X34,1,8.028455164
312,X35,0,8.500250471
312,X36,1,8.319229939
312,X37,0,8.562357743
312,X38,0,8.496786382
312,X39,0,8.187577396
312,X40,1,7.798112629
313,X1,0,10.07449535
313,X2,0,9.159783648
313,X3,1,8.802522498
313,X4,0,9.218903603
313,X5,0,9.280146246
313,X6,0,8.897545599
313,X7,1,8.539345996
313,X8,1,8.978282203
313,X9,1,9.378985498
313,X10,1,8.933004592
313,X11,0,8.567886306
313,X12,1,8.702676412
313,X13,0,8.454679286
313,X14,0,9.379998755
313,X15,1,8.52158354
313,X16,1,8.326274787
313,X17,1,8.357493813
313,X18,0,8.061802275
313,X19,1,8.944811104
313,X20,1,8.591558273
313,X21,0,8.908829792
313,X22,1,8.710619528
313,X23,0,8.896998553
313,X24,1,8.476371197
313,X25,1,9.352447389
313,X26,1,9.00675432
313,X27,1,8.315077007
313,X28,0,9.085797037
313,X29,1,8.332789468
313,X30,0,8.46884293
313,X31,1,8.554296279
313,X32,0,8.067776196
313,X33,1,9.281450999
313,X34,1,8.678631537
313,X35,0,8.531687638
313,X36,1,8.398634855
313,X37,1,8.210668031
313,X38,1,8.750999691
313,X39,1,8.751157981
313,X40,1,9.100637107
314,X1,0,9.135616826
314,X2,0,9.100413893
314,X3,1,8.827028069
314,X4,0,8.376550862
314,X5,1,8.161945799
314,X6,1,8.384118837
314,X7,0,8.515792211
314,X8,0,8.931816237
314,X9,0,7.999678579
314,X10,0,8.43923165
314,X11,0,8.14786713
314,X12,0,7.946263644
314,X13,1,7.976595409
314,X14,1,8.862766742
314,X15,1,8.711443319
314,X16,0,8.807022956
314,X17,0,8.788898309
314,X18,0,9.072456665
314,X19,0,7.812782819
314,X20,0,7.770645234
314,X21,0,8.127109185
314,X22,1,8.517193191
314,X23,1,8.598773178
314,X24,1,8.937087036
314,X25,1,8.811652248
314,X26,0,8.805375139
314,X27,1,8.202208436
314,X28,1,8.319473692
314,X29,1,8.063692634
314,X30,1,8.443977129
314,X31,0,8.272059622
314,X32,1,7.934155234
314,X33,1,8.454253392
314,X34,1,7.987864096
314,X35,0,7.617267814
314,X36,1,8.496378052
314,X37,0,8.303752416
314,X38,1,8.03818918
314,X39,1,8.363575703
314,X40,1,8.363575703
315,X1,1,8.903135633
315,X2,0,8.591743923
315,X3,0,8.178358166
315,X4,1,8.341410211
315,X5,1,8.522578664
315,X6,0,8.377241231
315,X7,0,8.594894699
315,X8,1,8.636929873
315,X9,0,8.662158962
315,X10,1,8.406261631
315,X11,1,8.310906757
315,X12,1,8.485496105
315,X13,0,8.986696696
315,X14,0,8.196161139
315,X15,0,8.087025471
315,X16,0,8.23110984
315,X17,1,8.493719835
315,X18,1,8.431199478
315,X19,0,8.578288291
315,X20,1,8.593227878
315,X21,0,8.612503371
315,X22,1,8.850660919
315,X23,0,8.431199478
315,X24,1,8.669055541
315,X25,0,8.064636476
315,X26,0,8.11342664
315,X27,1,8.475537516
315,X28,0,8.096208272
315,X29,0,8.723882105
315,X30,1,8.628197749
315,X31,1,8.118505068
315,X32,0,8.366370302
315,X33,1,8.149312844
315,X34,1,8.381144347
315,X35,1,8.104099056
315,X36,0,8.527539483
315,X37,1,8.178638789
315,X38,0,8.51318517
315,X39,1,8.345692873
315,X40,0,8.333991247
316,X1,0,8.707813551
316,X2,0,7.567862605
316,X3,0,7.713784617
316,X4,1,7.488852956
316,X5,1,7.97831097
316,X6,1,7.82084088
316,X7,0,8.331345425
316,X8,1,7.609862201
316,X9,0,7.880048201
316,X10,0,7.431299675
316,X11,0,7.70210434
316,X12,1,7.327780538
316,X13,1,8.494538501
316,X14,0,7.784473236
316,X15,0,8.689801056
316,X16,0,8.163940955
316,X17,0,8.067462667
316,X18,0,8.079927771
316,X19,1,7.932721027
316,X20,1,9.162304923
316,X21,1,8.816705016
316,X22,1,7.800572655
316,X23,1,7.321188557
316,X24,0,8.186185994
316,X25,1,8.70549682
316,X26,1,8.727778213
316,X27,1,7.681099002
316,X28,1,7.884952946
316,X29,1,6.986566459
316,X30,0,7.055312843
316,X31,0,6.958448393
316,X32,1,7.966586698
316,X33,1,8.34640487
316,X34,0,7.72753511
316,X35,1,8.061486867
316,X36,0,7.11395611
316,X37,0,7.658699558
316,X38,0,7.670428522
316,X39,0,7.575584652
316,X40,1,7.738052298
317,X1,0,8.579792333
317,X2,1,7.330405212
317,X3,0,7.582738489
317,X4,1,7.774855767
317,X5,0,7.469083885
317,X6,0,7.853216388
317,X7,1,8.163656176
317,X8,0,7.627057417
317,X9,1,10.746971
317,X10,0,9.526391218
317,X11,1,7.099201744
317,X12,0,7.932721027
317,X13,1,7.157735484
317,X14,1,7.385851078
317,X15,1,7.713337889
317,X16,0,7.227662499
317,X17,0,8.163086376
317,X18,0,8.850517622
317,X19,1,7.811163385
317,X20,1,7.045776577
317,X21,0,7.631431665
317,X22,0,7.60339934
317,X23,0,6.91968385
317,X24,0,8.385032288
317,X25,1,7.050989447
317,X26,1,7.741533589
317,X27,0,7.798523054
317,X28,0,7.360103973
317,X29,1,7.516433303
317,X30,1,7.424165281
317,X31,0,8.139440522
317,X32,1,6.89060912
317,X33,1,7.196686571
317,X34,1,7.126087273
317,X35,0,7.259116128
317,X36,1,8.691818542
317,X37,0,7.186144305
317,X38,1,6.784457063
317,X39,0,6.922643891
317,X40,1,8.055475142
318,X1,1,9.557823198
318,X10,1,9.118992333
318,X11,0,9.213136459
318,X12,1,8.814479
318,X13,1,8.931023216
318,X14,1,8.95828281
318,X15,0,8.898775359
318,X16,1,9.477079667
318,X17,0,9.738082108
318,X18,1,8.659213451
318,X19,1,8.981807323
318,X2,0,9.486379933
318,X20,0,9.053335623
318,X21,0,8.900685319
318,X22,1,9.022081223
318,X23,1,9.270305953
318,X24,1,8.836519269
318,X25,0,9.151014906
318,X26,0,9.169726689
318,X27,0,8.957381736
318,X28,1,9.173676388
318,X29,0,9.129130317
318,X3,1,9.730026624
318,X30,0,9.211639528
318,X31,1,8.954286157
318,X32,0,8.605204069
318,X33,0,8.375399186
318,X34,1,9.32349047
318,X35,1,9.426580147
318,X36,1,9.432283203
318,X37,1,9.640107773
318,X38,0,8.765458532
318,X39,1,9.260558088
318,X4,0,9.214531577
318,X40,0,8.686091728
318,X5,1,9.228376734
318,X6,0,9.059633755
318,X7,0,8.926783114
318,X8,1,9.611328808
318,X9,0,9.040500593
319,X1,0,8.403576465
319,X10,1,8.461046031
319,X11,0,8.734721004
319,X12,0,8.315321775
319,X13,0,8.516593011
319,X14,1,8.363342467
319,X15,0,9.089414904
319,X16,0,8.63016467
319,X17,1,7.877776333
319,X18,0,8.407601515
319,X19,0,8.567696174
319,X2,0,9.174816816
319,X20,0,8.663542088
319,X21,0,9.577895907
319,X22,0,8.034306936
319,X23,1,7.795234929
319,X24,0,8.574895902
319,X25,0,7.731492029
319,X26,1,8.367996885
319,X27,1,8.135932772
319,X28,1,8.478868077
319,X29,0,8.200013648
319,X3,0,7.964850887
319,X30,1,8.511376306
319,X31,1,10.09641929
319,X32,0,7.964850887
319,X33,1,8.088868789
319,X34,0,8.170751424
319,X35,1,10.74123279
319,X36,0,8.487352349
319,X37,1,8.130647968
319,X38,1,7.77443551
319,X39,0,8.023224685
319,X4,1,8.206856428
319,X40,1,8.109826276
319,X5,1,9.25636481
319,X6,0,7.920083199
319,X7,1,8.123557835
319,X8,1,8.580918882
319,X9,0,8.136810864
320,X1,1,8.95776801
320,X10,1,8.670600738
320,X11,1,7.994294986
320,X12,0,7.830822995
320,X13,0,8.271804031
320,X14,0,8.159660737
320,X15,1,7.701652363
320,X16,1,7.971430998
320,X17,0,8.366602833
320,X18,0,8.634264863
320,X19,1,8.321178307
320,X2,1,8.374707543
320,X20,0,7.836369761
320,X21,1,7.836369761
320,X22,1,7.251344983
320,X23,0,8.526945483
320,X24,1,7.920446505
320,X25,0,7.751475318
320,X26,0,8.051340933
320,X27,1,7.637716433
320,X28,1,8.046229101
320,X29,1,8.38822281
320,X3,1,7.689828669
320,X30,0,7.9683195
320,X31,1,7.379632153
320,X32,1,7.971430998
320,X33,0,8.726318951
320,X34,0,9.140561477
320,X35,0,8.580918882
320,X36,1,7.355001921
320,X37,1,7.686621335
320,X38,0,7.788211558
320,X39,1,8.448057453
320,X4,1,8.383204551
320,X40,0,8.091015042
320,X5,1,8.244596756
320,X6,1,7.966586698
320,X7,1,7.60638739
320,X8,1,7.726212651
320,X9,1,8.686091728
321,X1,0,9.642187721
321,X10,1,7.007600614
321,X11,0,8.93260863
321,X12,0,6.881411304
321,X13,0,7.306531399
321,X14,0,7.172424577
321,X15,0,6.689599269
321,X16,0,8.605936401
321,X17,0,6.741700695
321,X18,1,9.690418087
321,X19,0,6.987490247
321,X2,0,8.410275909
321,X20,0,8.279950716
321,X21,1,6.899723107
321,X22,0,7.60090246
321,X23,1,6.434546519
321,X24,1,7.067319849
321,X25,0,6.510258341
321,X26,1,7.21303166
321,X27,1,7.374629015
321,X28,1,7.228388452
321,X29,1,6.770789424
321,X3,0,8.751632702
321,X30,1,6.770789424
321,X31,1,8.52158354
321,X32,1,6.576469569
321,X33,0,6.786716951
321,X34,1,6.642486801
321,X35,0,6.651571874
321,X36,0,6.783325201
321,X37,1,6.65544035
321,X38,0,9.37763289
321,X39,1,6.762729507
321,X4,0,8.10832229
321,X40,0,6.595780514
321,X5,1,7.173191742
321,X6,1,6.826545224
321,X7,1,7.579167967
321,X8,1,7.398786275
321,X9,1,9.745312118
322,X1,1,9.241063545
322,X10,0,9.116688816
322,X11,0,9.835529859
322,X12,0,8.704004653
322,X13,0,9.391494581
322,X14,1,8.820994646
322,X15,0,9.298351249
322,X16,1,9.208137948
322,X17,1,8.253227646
322,X18,1,8.936561205
322,X19,0,9.010302809
322,X2,1,9.003193194
322,X20,1,9.098402719
322,X21,1,9.955083301
322,X22,0,8.825559855
322,X23,1,9.35617082
322,X24,0,8.612685173
322,X25,0,10.10184649
322,X26,1,9.067277989
322,X27,1,9.908674079
322,X28,0,8.571870753
322,X29,0,8.52337405
322,X3,1,8.990441551
322,X30,1,8.519989279
322,X31,1,10.31526602
322,X32,1,8.992059976
322,X33,1,8.528924114
322,X34,1,9.192278229
322,X35,0,8.851806559
322,X36,1,8.798001695
322,X37,0,8.664923303
322,X38,1,9.303739636
322,X39,0,9.479221815
322,X4,0,8.843182098
322,X40,0,9.189218875
322,X5,0,8.878915377
322,X6,1,9.121836973
322,X7,0,9.420277096
322,X8,1,8.775858315
322,X9,1,9.793561073
323,X1,0,8.970686269
323,X10,1,7.701652363
323,X11,0,8.425516403
323,X12,1,8.936298185
323,X13,1,8.755579972
323,X14,1,8.014004995
323,X15,1,8.910855587
323,X16,0,7.888709524
323,X17,1,7.727975542
323,X18,1,7.920083199
323,X19,1,8.583916823
323,X2,1,8.250358951
323,X20,0,7.515344571
323,X21,0,9.043695295
323,X22,0,8.687104728
323,X23,0,8.664232934
323,X24,1,7.646353722
323,X25,1,8.01466637
323,X26,0,8.161375023
323,X27,0,8.388677769
323,X28,1,7.353081921
323,X29,1,7.579167967
323,X3,1,8.327484416
323,X30,1,8.000349495
323,X31,0,7.909122183
323,X32,1,8.328451067
323,X33,0,7.793586803
323,X34,1,8.269500767
323,X35,1,8.511376306
323,X36,1,8.105911198
323,X37,1,7.432483808
323,X38,1,7.98752448
323,X39,1,8.577911926
323,X4,1,8.06117136
323,X40,0,8.014004995
323,X5,0,8.010027528
323,X6,0,8.062117583
323,X7,0,8.990566138
323,X8,1,8.402231173
323,X9,1,8.810161268
324,X1,0,8.032684876
324,X2,1,7.644919345
324,X3,0,8.048149102
324,X4,0,7.963460067
324,X5,0,8.485083137
324,X6,1,7.942717541
324,X7,0,9.016755623
324,X8,0,8.141772205
324,X9,0,9.873749734
324,X10,1,6.492239835
324,X11,0,6.276643489
324,X12,1,7.029972912
324,X13,0,6.603943825
324,X14,0,7.239932591
324,X15,1,6.249975242
324,X16,1,6.396929655
324,X17,1,7.388946098
324,X18,1,6.202535517
324,X19,1,6.458338283
324,X20,1,6.327936784
324,X21,0,5.96100534
324,X22,0,7.200424893
324,X23,1,6.568077911
324,X24,1,6.923628628
324,X25,1,6.073044534
324,X26,1,6.335054251
324,X27,0,6.040254711
324,X28,0,5.762051383
324,X29,1,6.897704943
324,X30,0,6.148468296
324,X31,0,6.380122537
324,X32,1,5.913503006
324,X33,1,6.109247583
324,X34,1,5.958424693
324,X35,1,5.840641657
324,X36,0,5.840641657
324,X37,0,5.918893854
324,X38,1,5.950642553
324,X39,0,5.973809612
324,X40,0,5.869296913
325,X1,0,9.390659926
325,X2,1,8.792853289
325,X3,0,9.316680408
325,X4,1,8.941676305
325,X5,0,8.795733606
325,X6,0,8.921457579
325,X7,1,9.117566972
325,X8,1,9.208839246
325,X9,1,8.93115543
325,X10,1,8.558910785
325,X11,1,8.828787084
325,X12,1,8.621192781
325,X13,0,8.636929873
325,X14,0,8.317033476
325,X15,1,7.844240718
325,X16,1,8.745761999
325,X17,1,9.16136019
325,X18,1,8.684062644
325,X19,1,9.439386469
325,X20,0,8.765926514
325,X21,1,8.709465079
325,X22,0,8.634264863
325,X23,0,8.822911626
325,X24,0,8.33423143
325,X25,1,8.596373989
325,X26,1,8.318742253
325,X27,1,9.062652099
325,X28,0,8.908559375
325,X29,1,8.480529207
325,X30,0,8.709300049
325,X31,1,8.457018468
325,X32,1,8.417372856
325,X33,1,8.415824697
325,X34,1,8.558910785
325,X35,1,8.73809423
325,X36,1,8.642591601
325,X37,1,7.886832999
325,X38,1,8.116118432
325,X39,1,9.477079667
325,X40,1,8.76452191
326,X1,1,9.077837022
326,X2,0,8.333270353
326,X3,0,7.908387159
326,X4,0,7.793174347
326,X5,1,7.67971364
326,X6,0,7.761319181
326,X7,0,8.536995819
326,X8,1,7.815610532
326,X9,1,7.689828669
326,X10,0,8.569406063
326,X11,1,8.41803562
326,X12,1,8.046869511
326,X13,0,7.80016307
326,X14,0,7.823645931
326,X15,0,7.835183755
326,X16,1,6.998509642
326,X17,0,7.684324068
326,X18,0,7.938445551
326,X19,0,8.224699562
326,X20,0,8.602820277
326,X21,1,7.869401713
326,X22,0,8.101677747
326,X23,1,7.387090236
326,X24,0,7.638198244
326,X25,1,8.096208272
326,X26,0,8.955577146
326,X27,1,8.338066526
326,X28,1,7.705712824
326,X29,0,7.45007957
326,X30,0,8.118207049
326,X31,1,7.929486523
326,X32,1,7.949797216
326,X33,1,7.757478767
326,X34,0,8.803123731
326,X35,0,7.541152455
326,X36,0,7.229113878
326,X37,0,7.299797367
326,X38,0,7.073269717
326,X39,0,7.930925372
326,X40,0,7.707512195
327,X1,0,8.154500175
327,X2,1,7.566828479
327,X3,1,8.015657615
327,X4,0,7.940227765
327,X5,0,8.068402959
327,X6,0,8.321178307
327,X7,0,8.117610746
327,X8,0,7.949797216
327,X9,0,8.391629968
327,X10,1,8.270525095
327,X11,1,8.017966703
327,X12,1,9.437475945
327,X13,0,8.843903651
327,X14,0,9.850719487
327,X15,0,8.663714844
327,X16,1,8.016977747
327,X17,1,8.196987927
327,X18,0,8.483222672
327,X19,1,8.590071837
327,X20,0,9.063926354
327,X21,1,8.48487659
327,X22,0,8.362175469
327,X23,0,7.549609165
327,X24,1,7.855544678
327,X25,1,8.451694209
327,X26,1,8.832587702
327,X27,1,9.922897946
327,X28,0,7.882314919
327,X29,1,8.00836557
327,X30,1,8.015327309
327,X31,1,8.267705665
327,X32,1,8.00836557
327,X33,1,8.282988693
327,X34,1,10.62827874
327,X35,1,7.931284762
327,X36,1,7.689828669
327,X37,1,7.933079772
327,X38,0,7.951559331
327,X39,1,7.412764017
327,X40,1,8.016977747
328,X1,0,9.377294452
328,X2,1,10.82107744
328,X3,1,8.402679805
328,X4,1,8.617762246
328,X5,0,8.486321528
328,X6,1,8.402904045
328,X7,0,8.274611946
328,X8,0,8.403576465
328,X9,0,9.112948026
328,X10,0,8.636574948
328,X11,1,7.930925372
328,X12,0,10.31642468
328,X13,1,9.116908427
328,X14,0,8.309676896
328,X15,1,8.143807977
328,X16,1,7.657755271
328,X17,0,10.02897417
328,X18,1,11.12362402
328,X19,1,8.375860015
328,X20,0,8.428580533
328,X21,1,9.220884586
328,X22,1,8.311152548
328,X23,0,8.63016467
328,X24,1,8.008032847
328,X25,1,8.245646901
328,X26,0,8.04462628
328,X27,1,7.932003152
328,X28,1,9.483111832
328,X29,1,8.443546651
328,X30,1,7.972121129
328,X31,1,8.644354337
328,X32,1,5.451038454
328,X33,0,8.504513138
328,X34,0,8.053569169
328,X35,0,8.440744019
328,X36,1,8.184234774
328,X37,1,8.256866849
328,X38,1,8.909640602
328,X39,0,7.980707821
328,X40,1,8.921857979
329,X1,1,9.875910785
329,X2,0,9.070388412
329,X3,1,9.115040192
329,X4,0,9.076580382
329,X5,0,8.110427238
329,X6,0,8.480321717
329,X7,1,9.86521439
329,X8,0,8.457655479
329,X9,1,8.685415824
329,X10,1,8.547334348
329,X11,1,8.808369153
329,X12,1,8.569785642
329,X13,1,8.483843212
329,X14,1,8.91798071
329,X15,0,8.041734711
329,X16,0,8.413608875
329,X17,1,8.868835493
329,X18,1,8.328209492
329,X19,1,9.17222305
329,X20,0,9.436439551
329,X21,0,9.221280312
329,X22,0,9.737137765
329,X23,1,8.472195825
329,X24,1,7.687080156
329,X25,0,8.824089483
329,X26,1,8.450625947
329,X27,1,8.789050714
329,X28,0,8.535818656
329,X29,0,8.497194545
329,X30,0,8.357259153
329,X31,0,8.491670234
329,X32,1,8.5754621
329,X33,0,8.570733958
329,X34,0,8.280711076
329,X35,0,8.433376705
329,X36,1,8.653819789
329,X37,0,8.443331343
329,X38,0,8.316789127
329,X39,1,8.492285556
329,X40,0,8.58316818
330,X1,0,8.534640105
330,X2,1,8.181160858
330,X3,1,8.257644958
330,X4,1,8.495152061
330,X5,1,8.026823576
330,X6,0,8.659907294
330,X7,1,8.657824321
330,X8,0,8.341410211
330,X9,1,8.970686269
330,X10,0,9.002454823
330,X11,0,9.018574356
330,X12,1,8.56522116
330,X13,0,8.047829357
330,X14,0,8.714731714
330,X15,1,8.679992082
330,X16,1,8.769196271
330,X17,1,8.403576465
330,X18,0,8.255828427
330,X19,0,8.225235324
330,X20,1,8.000014094
330,X21,0,8.244596756
330,X22,1,8.289288323
330,X23,0,8.593598523
330,X24,1,8.897955687
330,X25,0,9.220884586
330,X26,0,8.267705665
330,X27,0,9.513698924
330,X28,1,8.904494329
330,X29,0,8.883640233
330,X30,0,8.317521996
330,X31,0,9.039314775
330,X32,0,8.947936107
330,X33,1,8.997147152
330,X34,0,8.127995056
330,X35,1,9.283683766
330,X36,0,8.627481545
330,X37,1,8.482808765
330,X38,1,8.034955025
330,X39,1,9.19482056
330,X40,0,8.592486175
331,X1,1,9.122492281
331,X2,1,8.56674497
331,X3,0,8.704004653
331,X4,1,8.292798858
331,X5,1,8.955964118
331,X6,1,8.164794804
331,X7,0,8.062432792
331,X8,1,8.278682163
331,X9,1,9.979892884
331,X10,0,8.712759975
331,X11,0,8.667680025
331,X12,0,8.435549202
331,X13,0,8.460411177
331,X14,0,9.578588092
331,X15,0,7.793586803
331,X16,0,8.158802491
331,X17,1,8.163656176
331,X18,0,8.021912779
331,X19,0,8.130647968
331,X20,1,7.959974528
331,X21,0,8.073714641
331,X22,0,7.975564658
331,X23,0,7.760893196
331,X24,1,8.415603336
331,X25,1,7.756623335
331,X26,0,8.311398278
331,X27,1,8.802071337
331,X28,1,8.806124483
331,X29,0,8.160518247
331,X30,0,7.857093865
331,X31,1,8.35819746
331,X32,0,10.00192919
331,X33,1,8.018954683
331,X34,1,10.53515819
331,X35,1,8.292798858
331,X36,1,10.13444053
331,X37,1,8.08147504
331,X38,1,7.870165946
331,X39,0,8.000349495
331,X40,1,8.887514597
332,X1,0,8.602820277
332,X2,0,8.470311206
332,X3,0,8.143807977
332,X4,1,8.299037182
332,X5,1,7.544332108
332,X6,0,8.381373468
332,X7,0,8.123261319
332,X8,1,7.890208213
332,X9,0,8.051659557
332,X10,1,7.939515261
332,X11,1,7.710653324
332,X12,0,7.697121317
332,X13,0,7.625107148
332,X14,1,7.159291905
332,X15,1,7.488852956
332,X16,0,7.109879463
332,X17,0,8.42156296
332,X18,0,7.757906208
332,X19,0,7.922261058
332,X20,1,7.942717541
332,X21,1,7.65349491
332,X22,1,7.471932078
332,X23,0,7.790696031
332,X24,0,8.114623886
332,X25,0,7.212294469
332,X26,1,7.305860033
332,X27,1,7.816013839
332,X28,1,7.660114319
332,X29,0,7.584773078
332,X30,1,7.812782819
332,X31,0,7.222566019
332,X32,0,7.638198244
332,X33,1,7.896552702
332,X34,1,7.894318064
332,X35,1,7.157735484
332,X36,1,7.572502985
332,X37,0,7.696212639
332,X38,0,7.867488569
332,X39,0,7.971776123
332,X40,1,7.380255788
333,X1,0,8.608312785
333,X2,1,9.031572493
333,X3,1,8.488587934
333,X4,0,8.220941168
333,X5,0,8.651724084
333,X6,0,8.000684785
333,X7,0,8.324093761
333,X8,1,8.151044946
333,X9,0,8.127109185
333,X10,1,8.347116361
333,X11,1,8.545780648
333,X12,1,8.122074375
333,X13,0,7.846589975
333,X14,1,8.713088868
333,X15,1,8.050384453
333,X16,0,8.062117583
333,X17,0,8.461891876
333,X18,1,7.806696373
333,X19,1,8.713910628
333,X20,1,8.016647877
333,X21,0,7.740664402
333,X22,0,7.770645234
333,X23,0,8.460411177
333,X24,0,8.711443319
333,X25,1,7.86787149
333,X26,0,7.757051142
333,X27,1,8.595819512
333,X28,0,8.020270473
333,X29,0,8.613048677
333,X30,1,7.471932078
333,X31,0,8.185907481
333,X32,0,8.598035579
333,X33,0,8.29304914
333,X34,1,8.058960018
333,X35,0,7.791109511
333,X36,0,7.99530662
333,X37,0,8.406038142
333,X38,1,8.367067733
333,X39,1,7.895063498
333,X40,1,8.952475968
334,X1,1,8.596004372
334,X2,1,8.908964972
334,X3,0,8.839856233
334,X4,1,8.489205155
334,X5,0,8.64223868
334,X6,1,8.600798775
334,X7,1,8.378160983
334,X8,0,9.394327208
334,X9,1,8.635509418
334,X10,0,8.856518497
334,X11,0,8.417151837
334,X12,1,8.921324077
334,X13,0,8.724857556
334,X14,0,8.661466681
334,X15,1,9.347228624
334,X16,1,8.417593826
334,X17,1,8.02289687
334,X18,0,8.199738961
334,X19,1,7.965198291
334,X20,1,10.87734884
334,X21,1,8.431199478
334,X22,1,8.32700074
334,X23,0,7.996990406
334,X24,1,8.450198323
334,X25,0,8.378390789
334,X26,1,8.48714627
334,X27,0,8.668711839
334,X28,1,8.712101864
334,X29,1,8.673170773
334,X30,0,8.601901919
334,X31,0,8.514389264
334,X32,0,8.089482474
334,X33,0,8.983439772
334,X34,1,8.379997952
334,X35,0,8.185350223
334,X36,1,8.387084506
334,X37,0,8.173857455
334,X38,1,8.872066513
334,X39,0,8.29654652
334,X40,1,8.356085031
335,X1,1,8.501470231
335,X2,1,8.213652703
335,X3,0,7.934155234
335,X4,0,8.299285907
335,X5,0,8.348537825
335,X6,0,8.882808055
335,X7,0,8.566935283
335,X8,0,8.344505084
335,X9,1,8.108623268
335,X10,0,8.263590433
335,X11,1,8.422222954
335,X12,0,10.73952222
335,X13,1,8.132118773
335,X14,0,8.383661799
335,X15,0,7.718685495
335,X16,1,8.23270601
335,X17,0,8.205218426
335,X18,1,8.731013415
335,X19,1,8.162801353
335,X20,1,7.701200181
335,X21,0,8.469472455
335,X22,0,8.65538869
335,X23,1,8.335191583
335,X24,0,8.637107288
335,X25,0,8.562357743
335,X26,1,8.558143178
335,X27,1,8.171316875
335,X28,0,8.284251798
335,X29,1,8.370315996
335,X30,1,8.294799359
335,X31,1,8.103494278
335,X32,0,8.710124927
335,X33,0,8.791486027
335,X34,0,7.941295571
335,X35,1,8.187855444
335,X36,0,8.687273462
335,X37,0,8.285513309
335,X38,0,8.517793011
335,X39,1,8.174702882
335,X40,1,8.49023301
336,X1,1,8.294799359
336,X2,1,9.00797936
336,X3,0,8.286269453
336,X4,0,8.677439541
336,X5,1,7.730174795
336,X6,0,8.352082671
336,X7,0,8.651724084
336,X8,0,9.242517104
336,X9,1,8.465268119
336,X10,1,8.173857455
336,X11,0,7.901377354
336,X12,0,8.016647877
336,X13,1,7.982416347
336,X14,1,8.883778861
336,X15,1,7.732369222
336,X16,1,8.180880942
336,X17,1,7.942362238
336,X18,1,9.312716439
336,X19,1,7.940583827
336,X20,0,9.060795735
336,X21,0,7.87207398
336,X22,1,7.703007682
336,X23,1,8.719317376
336,X24,0,7.673688129
336,X25,1,7.689828669
336,X26,1,8.053251154
336,X27,1,7.699389406
336,X28,0,8.279950716
336,X29,0,7.779466967
336,X30,1,7.776954403
336,X31,0,8.018625465
336,X32,0,7.317212408
336,X33,1,6.989335266
336,X34,0,9.393411648
336,X35,1,8.997270906
336,X36,1,10.04641838
336,X37,1,7.397561536
336,X38,0,8.612139669
336,X39,0,8.314097335
336,X40,0,7.983098941
337,X1,1,8.682199026
337,X2,0,8.490643856
337,X3,1,8.452547998
337,X4,0,8.486733984
337,X5,1,8.087947555
337,X6,0,7.830822995
337,X7,1,8.297543529
337,X8,1,8.23164218
337,X9,0,9.43867045
337,X10,0,8.174702882
337,X11,0,8.538367427
337,X12,0,8.447628728
337,X13,0,8.323365694
337,X14,0,8.882530508
337,X15,0,8.426611813
337,X16,1,8.367067733
337,X17,1,7.89319887
337,X18,1,8.261268151
337,X19,1,8.137980454
337,X20,0,8.355379895
337,X21,0,8.657998068
337,X22,1,8.218517577
337,X23,1,7.762170607
337,X24,1,8.684062644
337,X25,1,8.004699511
337,X26,0,7.959974528
337,X27,0,7.820037989
337,X28,0,8.016647877
337,X29,0,7.702556113
337,X30,0,7.411556288
337,X31,0,7.908019445
337,X32,0,8.450198323
337,X33,1,8.368693183
337,X34,1,8.138856751
337,X35,1,9.526901404
337,X36,1,8.114324709
337,X37,1,8.940498218
337,X38,0,9.444621668
337,X39,1,8.774776816
337,X40,1,7.997999318
338,X1,0,9.529375752
338,X10,1,7.971430998
338,X11,0,8.911395107
338,X12,1,8.210939733
338,X13,0,8.037866235
338,X14,1,8.556029215
338,X15,1,8.603003848
338,X16,0,8.988945291
338,X17,1,7.67971364
338,X18,1,8.338305731
338,X19,0,7.809135398
338,X2,1,8.090708716
338,X20,1,8.289037098
338,X21,1,8.461680481
338,X22,0,8.794370279
338,X23,1,7.971776123
338,X24,0,6.617402978
338,X25,0,8.361941906
338,X26,0,8.533460164
338,X27,1,8.855520849
338,X28,1,8.693328989
338,X29,0,8.821879863
338,X3,0,8.584477938
338,X30,0,8.860215359
338,X31,1,8.392763113
338,X32,0,8.130647968
338,X33,1,8.357962966
338,X34,1,8.224163513
338,X35,1,8.516593011
338,X36,1,7.590852124
338,X37,0,8.472195825
338,X38,0,8.285008895
338,X39,1,8.720950029
338,X4,1,8.760923376
338,X40,0,8.950921765
338,X5,1,7.930206207
338,X6,0,8.421783007
338,X7,0,8.135346949
338,X8,1,8.816705016
338,X9,0,8.574895902
339,X1,0,8.957896735
339,X10,1,8.024534872
339,X11,0,7.264730178
339,X12,0,7.290974778
339,X13,1,7.016609684
339,X14,1,7.349230825
339,X15,1,7.263329617
339,X16,0,7.651120176
339,X17,0,8.034955025
339,X18,0,7.903965634
339,X19,0,7.794411206
339,X2,1,8.48467
339,X20,0,7.797702036
339,X21,1,7.695757991
339,X22,1,7.654917048
339,X23,1,7.264730178
339,X24,1,7.744136628
339,X25,1,7.932721027
339,X26,1,7.520234556
339,X27,0,7.453561872
339,X28,0,7.681099002
339,X29,0,7.201916318
339,X3,1,8.356085031
339,X30,1,7.327123292
339,X31,0,7.783640596
339,X32,0,8.047189562
339,X33,1,8.074026216
339,X34,0,7.624130586
339,X35,1,6.947937069
339,X36,0,7.393263095
339,X37,0,7.158513997
339,X38,0,7.50659178
339,X39,0,7.101675972
339,X4,0,8.149890544
339,X40,0,7.207118856
339,X5,1,8.635331719
339,X6,0,7.536363938
339,X7,1,7.58171964
339,X8,1,7.545918151
339,X9,1,7.673688129
340,X1,1,10.73926213
340,X10,0,8.824530822
340,X11,1,8.135932772
340,X12,1,9.173053787
340,X13,1,8.68270763
340,X14,0,9.208739091
340,X15,1,8.769196271
340,X16,0,8.526945483
340,X17,1,8.054840221
340,X18,0,8.334711622
340,X19,1,9.169622539
340,X2,0,8.668196065
340,X20,1,8.281217661
340,X21,1,8.426392827
340,X22,1,8.606302366
340,X23,0,9.02989705
340,X24,1,9.086249987
340,X25,1,8.164794804
340,X26,1,8.22067217
340,X27,1,8.911799556
340,X28,1,8.193400232
340,X29,1,8.895492631
340,X3,0,9.101194925
340,X30,1,8.229244417
340,X31,1,7.803435057
340,X32,0,9.101194925
340,X33,0,10.46130172
340,X34,1,9.215327913
340,X35,0,8.054840221
340,X36,1,9.495519314
340,X37,0,10.77385999
340,X38,0,8.836955157
340,X39,1,9.009936308
340,X4,0,8.787067645
340,X40,0,8.69684452
340,X5,0,8.809862805
340,X6,0,8.764053269
340,X7,0,8.855948534
340,X8,0,9.413362845
340,X9,0,10.00572821
341,X1,1,8.531490496
341,X10,0,8.152198016
341,X11,0,8.663542088
341,X12,1,8.940367233
341,X13,0,7.433075349
341,X14,0,7.836764783
341,X15,0,9.46397433
341,X16,1,7.955425089
341,X17,0,8.955835144
341,X18,1,8.201660191
341,X19,1,7.99193052
341,X2,0,8.742574238
341,X20,1,7.657282793
341,X21,0,8.027476531
341,X22,1,8.347590407
341,X23,0,7.943072717
341,X24,1,8.141189793
341,X25,0,8.009695358
341,X26,0,8.062117583
341,X27,1,7.784889296
341,X28,1,8.298041661
341,X29,0,8.186742787
341,X3,0,7.834392303
341,X30,0,8.140898461
341,X31,1,8.535818656
341,X32,1,8.518791913
341,X33,1,7.975220839
341,X34,0,8.368229038
341,X35,0,7.946971358
341,X36,1,8.609772373
341,X37,1,8.301273485
341,X38,0,8.315077007
341,X39,0,8.058643712
341,X4,0,8.356085031
341,X40,1,8.635331719
341,X5,0,8.4147174
341,X6,0,8.355850041
341,X7,0,7.854769183
341,X8,1,8.530504205
341,X9,1,7.356279877
342,X1,1,8.373091847
342,X10,0,8.29304914
342,X11,1,7.714231145
342,X12,0,9.015176707
342,X13,0,8.555066844
342,X14,0,8.023224685
342,X15,1,8.06652149
342,X16,1,8.44634145
342,X17,0,8.402904045
342,X18,0,8.727940222
342,X19,1,8.126813721
342,X2,0,8.780787468
342,X20,0,8.147577736
342,X21,0,7.870929597
342,X22,1,7.969011781
342,X23,0,7.645875825
342,X24,0,8.019612794
342,X25,0,7.748891337
342,X26,0,8.495765244
342,X27,0,9.078293591
342,X28,0,8.078378104
342,X29,1,8.528133131
342,X3,1,8.445482344
342,X30,1,8.133000219
342,X31,0,8.772455373
342,X32,0,8.691818542
342,X33,1,8.303752416
342,X34,1,8.339739766
342,X35,0,8.459775921
342,X36,1,8.563122123
342,X37,1,8.50916102
342,X38,1,8.221478947
342,X39,1,8.195885391
342,X4,1,8.833899943
342,X40,1,7.400009517
342,X5,1,8.160518247
342,X6,0,8.432506383
342,X7,0,8.500860537
342,X8,1,8.416267273
342,X9,1,8.301273485
343,X1,0,9.241160514
343,X10,0,7.783224016
343,X11,0,7.744136628
343,X12,0,8.209580483
343,X13,0,8.167919363
343,X14,0,7.156176637
343,X15,1,8.287780027
343,X16,0,8.720623711
343,X17,1,9.096947685
343,X18,0,7.829630389
343,X19,1,7.396948603
343,X2,1,8.375168691
343,X20,0,8.260492857
343,X21,0,7.716015267
343,X22,0,7.795234929
343,X23,1,8.475328987
343,X24,1,8.215276959
343,X25,1,8.580918882
343,X26,1,8.585038738
343,X27,1,7.527255919
343,X28,1,8.109826276
343,X29,1,8.027150107
343,X3,0,8.808518619
343,X30,1,7.379632153
343,X31,0,8.061486867
343,X32,0,8.280711076
343,X33,1,7.937374696
343,X34,0,8.032035314
343,X35,1,7.660585462
343,X36,0,7.723562472
343,X37,0,8.472405009
343,X38,0,8.286017468
343,X39,0,7.944846711
343,X4,1,8.30201781
343,X40,1,7.456454555
343,X5,1,8.355379895
343,X6,1,9.010424947
343,X7,0,7.646353722
343,X8,0,8.336630088
343,X9,1,8.027150107
344,X1,0,8.06714904
344,X2,1,8.873187904
344,X3,1,8.23270601
344,X4,0,10.16615946
344,X5,0,7.726653665
344,X6,1,8.396606228
344,X7,1,10.26736649
344,X8,0,7.643482907
344,X9,1,9.711418644
344,X10,1,9.568224584
344,X11,0,8.038512021
344,X12,1,7.942362238
344,X13,1,8.093767758
344,X14,0,8.000014094
344,X15,1,8.468002947
344,X16,1,7.501082124
344,X17,1,8.102283624
344,X18,1,8.78201597
344,X19,1,8.738735461
344,X20,0,7.943072717
344,X21,1,7.658227526
344,X22,1,8.33014046
344,X23,0,9.162095059
344,X24,1,8.734238184
344,X25,0,7.43543802
344,X26,0,7.724004657
344,X27,1,8.321907968
344,X28,1,10.20706758
344,X29,1,8.741615924
344,X30,1,7.125283092
344,X31,0,9.176886996
344,X32,0,8.251142139
344,X33,0,7.445417557
344,X34,0,7.494986234
344,X35,0,7.17472431
344,X36,0,7.785720897
344,X37,0,8.432941639
344,X38,0,8.481980436
344,X39,0,9.882059605
344,X40,1,6.956545443
345,X1,1,9.289151552
345,X10,0,8.737933858
345,X11,0,8.657998068
345,X12,1,7.983781069
345,X13,1,8.646992629
345,X14,1,8.066207568
345,X15,1,7.827639546
345,X16,1,8.503702601
345,X17,1,7.327780538
345,X18,1,8.727616178
345,X19,1,8.381831553
345,X2,1,8.665268309
345,X20,1,8.657129032
345,X21,1,8.25426877
345,X22,1,7.743269701
345,X23,0,7.958576904
345,X24,1,9.214830277
345,X25,0,9.102643797
345,X26,1,7.86787149
345,X27,1,7.98480339
345,X28,1,8.166216269
345,X29,0,8.015987811
345,X3,1,7.982757702
345,X30,1,8.506536611
345,X31,0,8.340217321
345,X32,1,8.517193191
345,X33,0,8.394799543
345,X34,1,8.266421473
345,X35,1,7.398786275
345,X36,1,7.809947086
345,X37,1,8.052933037
345,X38,0,8.215547412
345,X39,1,8.545197388
345,X4,1,8.078998259
345,X40,1,8.07121854
345,X5,1,8.248005702
345,X6,1,8.335911094
345,X7,1,8.111328003
345,X8,1,7.817222786
345,X9,1,7.957177323
346,X1,0,9.656883442
346,X10,1,8.375860015
346,X11,0,8.825412915
346,X12,0,9.048762176
346,X13,1,8.106514516
346,X14,0,9.073030421
346,X15,0,8.667507952
346,X16,0,8.696175847
346,X17,0,8.662331957
346,X18,1,8.837100411
346,X19,0,8.697512746
346,X2,1,9.3727993
346,X20,0,8.422662708
346,X21,0,8.196712407
346,X22,1,8.583916823
346,X23,1,9.028938392
346,X24,1,8.844047899
346,X25,1,8.894670263
346,X26,0,8.641532466
346,X27,1,8.856518497
346,X28,1,9.171599544
346,X29,0,9.308283446
346,X3,1,8.881419552
346,X30,0,8.59822003
346,X31,1,8.948066103
346,X32,0,8.457018468
346,X33,0,8.840580188
346,X34,0,9.155778584
346,X35,1,8.467372496
346,X36,1,8.847503626
346,X37,0,8.602269364
346,X38,1,8.338066526
346,X39,1,8.880307359
346,X4,1,8.818186278
346,X40,1,8.866863661
346,X5,1,9.473089178
346,X6,0,9.35296777
346,X7,0,9.332558005
346,X8,1,9.366061247
346,X9,0,8.70417056
347,X1,0,9.521274996
347,X10,0,8.243545508
347,X11,0,8.626226952
347,X12,1,8.644178203
347,X13,1,8.45914026
347,X14,0,8.355614996
347,X15,0,8.197263371
347,X16,1,8.625688788
347,X17,0,8.501063809
347,X18,0,8.461680481
347,X19,1,8.325790526
347,X2,0,8.317521996
347,X20,1,8.316300249
347,X21,0,8.134174272
347,X22,0,8.32530603
347,X23,0,8.654517382
347,X24,1,10.07521149
347,X25,1,8.870241567
347,X26,1,8.049107721
347,X27,0,8.445267452
347,X28,1,8.360539381
347,X29,1,8.484049973
347,X3,1,9.453286551
347,X30,0,8.403352375
347,X31,0,8.45616849
347,X32,0,8.617762246
347,X33,0,8.260492857
347,X34,0,8.948196083
347,X35,1,8.228977643
347,X36,0,7.653020414
347,X37,0,9.660906307
347,X38,0,7.912423121
347,X39,0,8.592486175
347,X4,0,8.507748733
347,X40,0,8.909910727
347,X5,1,8.104401308
347,X6,1,8.423321976
347,X7,1,8.625688788
347,X8,1,8.598773178
347,X9,0,8.190631681
348,X1,0,7.928766322
348,X10,1,8.025843344
348,X11,1,7.887959337
348,X12,1,9.378647517
348,X13,1,8.207129168
348,X14,1,8.006034179
348,X15,0,8.847791065
348,X16,1,8.149890544
348,X17,1,8.009695358
348,X18,1,7.899153483
348,X19,1,8.123557835
348,X2,1,7.999342953
348,X20,0,8.452334619
348,X21,1,8.504107952
348,X22,1,8.362875831
348,X23,1,8.08147504
348,X24,0,7.984462732
348,X25,0,8.581106517
348,X26,1,10.7563911
348,X27,0,8.932872622
348,X28,0,10.12826976
348,X29,0,6.23636959
348,X3,0,8.298290634
348,X30,1,8.048468744
348,X31,1,8.810459642
348,X32,1,8.849944227
348,X33,1,8.646992629
348,X34,1,8.077447149
348,X35,1,7.900266037
348,X36,0,7.268223021
348,X37,1,8.25426877
348,X38,0,9.299358068
348,X39,1,9.14174028
348,X4,0,7.758333467
348,X40,1,8.324093761
348,X5,1,8.310906757
348,X6,1,7.797702036
348,X7,0,8.34877454
348,X8,1,7.695757991
348,X9,1,8.021912779
349,X1,0,8.894807371
349,X10,0,8.70383872
349,X11,0,8.186464429
349,X12,1,8.792701463
349,X13,1,8.473032296
349,X14,1,8.618846845
349,X15,0,9.413770892
349,X16,1,9.314159701
349,X17,0,8.246695944
349,X18,0,7.890208213
349,X19,1,8.223627176
349,X2,1,8.681859813
349,X20,0,8.899321434
349,X21,0,8.695339377
349,X22,1,8.22977775
349,X23,0,8.576405051
349,X24,1,8.182279739
349,X25,0,8.159088655
349,X26,0,8.675222056
349,X27,1,8.352554369
349,X28,1,8.149890544
349,X29,0,8.206037763
349,X3,0,9.225327502
349,X30,0,8.41272117
349,X31,0,8.718009331
349,X32,1,8.330863613
349,X33,0,8.624791202
349,X34,0,8.60849535
349,X35,0,8.896177422
349,X36,0,8.340933226
349,X37,0,9.044285788
349,X38,0,7.779885115
349,X39,0,8.630343289
349,X4,0,8.685922795
349,X40,1,8.70632484
349,X5,1,8.514188682
349,X6,0,8.752739509
349,X7,1,8.42002128
349,X8,0,8.617400452
349,X9,1,8.339023006
350,X1,0,11.30612267
350,X10,0,8.8164085
350,X11,1,9.93265793
350,X12,1,8.588583188
350,X13,1,8.059592329
350,X14,1,8.589885877
350,X15,1,10.42067291
350,X16,1,8.471568013
350,X17,1,8.923990745
350,X18,1,8.937875265
350,X19,1,8.818926087
350,X2,1,10.42990105
350,X20,1,8.433811582
350,X21,1,9.663261421
350,X22,1,8.783855897
350,X23,0,8.882114044
350,X24,1,8.459352192
350,X25,1,9.687505794
350,X26,1,8.427706025
350,X27,0,9.157256001
350,X28,0,8.873748128
350,X29,1,8.743372131
350,X3,1,9.958449111
350,X30,1,8.37262974
350,X31,1,9.433243894
350,X32,1,8.579604452
350,X33,1,8.107720062
350,X34,1,8.652772486
350,X35,1,8.913011922
350,X36,1,8.199464198
350,X37,0,8.832441792
350,X38,0,9.101306451
350,X39,0,8.391629968
350,X4,1,10.97169218
350,X40,0,9.687505794
350,X5,0,10.217422
350,X6,1,9.423191134
350,X7,1,8.820404065
350,X8,1,8.253227646
350,X9,0,8.469472455
351,X1,1,8.347116361
351,X2,0,8.239857411
351,X3,1,8.881280595
351,X4,0,8.662677858
351,X5,0,8.143517406
351,X6,0,7.70616297
351,X7,1,7.994632311
351,X8,1,7.462789157
351,X9,0,7.805474625
351,X10,1,8.211211362
351,X11,1,8.045267717
351,X12,0,8.068716193
351,X13,0,7.878534196
351,X14,1,9.024010794
351,X15,1,8.088254727
351,X16,1,8.483843212
351,X17,1,8.125630988
351,X18,0,8.298539545
351,X19,1,7.825245291
351,X20,0,8.720623711
351,X21,1,6.987490247
351,X22,1,8.018296139
351,X23,1,4.976733742
351,X24,1,8.156797047
351,X25,1,7.907283609
351,X26,1,8.393894975
351,X27,1,8.036896773
351,X28,1,7.718240952
351,X29,1,7.662467815
351,X30,0,8.41803562
351,X31,1,7.62900389
351,X32,1,8.051340933
351,X33,0,7.925880317
351,X34,1,7.928766322
351,X35,0,7.82084088
351,X36,1,8.083945702
351,X37,1,7.748891337
351,X38,1,9.489183496
351,X39,0,8.252185436
351,X40,0,8.72955887
352,X1,0,8.969923492
352,X2,1,8.579228582
352,X3,0,10.46681075
352,X4,1,7.766840537
352,X5,1,7.963807953
352,X6,0,9.098067129
352,X7,0,9.323847613
352,X8,1,7.930925372
352,X9,1,8.016977747
352,X10,1,7.384610383
352,X11,1,9.48097801
352,X12,0,8.0522965
352,X13,1,7.594884387
352,X14,0,8.921991411
352,X15,1,8.586532669
352,X16,0,7.880804345
352,X17,1,7.856319571
352,X18,0,7.763446389
352,X19,1,7.625595072
352,X20,1,7.940583827
352,X21,0,7.419380583
352,X22,0,8.357259153
352,X23,1,7.783640596
352,X24,0,8.698180525
352,X25,1,8.302761581
352,X26,1,7.856706793
352,X27,0,8.201660191
352,X28,0,8.370315996
352,X29,1,8.328209492
352,X30,1,7.686162303
352,X31,1,7.790696031
352,X32,0,7.806289289
352,X33,0,8.954156967
352,X34,0,8.958668737
352,X35,1,8.537191878
352,X36,1,8.031385331
352,X37,1,8.371704885
352,X38,0,7.885705391
352,X39,0,8.714239144
352,X40,1,7.865571758
353,X1,0,9.306195858
353,X10,0,8.807771067
353,X11,1,8.289288323
353,X12,1,8.629986019
353,X13,1,8.115520882
353,X14,1,7.860956365
353,X15,1,8.456381052
353,X16,1,9.108196898
353,X17,1,8.342125263
353,X18,1,8.349720837
353,X19,1,8.585225602
353,X2,1,9.254739959
353,X20,0,8.270781013
353,X21,0,8.176110342
353,X22,0,8.612503371
353,X23,1,8.976262256
353,X24,0,8.265650166
353,X25,0,8.088254727
353,X26,1,7.889833751
353,X27,0,8.860073424
353,X28,0,7.932003152
353,X29,1,8.311398278
353,X3,1,8.245384468
353,X30,0,8.350193651
353,X31,0,8.415824697
353,X32,1,8.145259567
353,X33,1,8.08671792
353,X34,1,7.890582535
353,X35,0,8.442900587
353,X36,0,7.711996507
353,X37,1,8.121183242
353,X38,0,8.443761913
353,X39,1,8.824530822
353,X4,0,8.909235279
353,X40,1,8.138272639
353,X5,0,8.559869466
353,X6,1,10.07882645
353,X7,1,9.113609183
353,X8,1,8.268475389
353,X9,0,8.548110294
354,X1,0,9.175955945
354,X10,0,7.582229194
354,X11,0,7.963807953
354,X12,0,7.676937146
354,X13,0,8.962263554
354,X14,0,8.236685323
354,X15,1,8.146709052
354,X16,1,8.249836485
354,X17,1,8.440528106
354,X18,0,8.066835314
354,X19,1,9.131946305
354,X2,1,8.832441792
354,X20,0,8.517992872
354,X21,0,8.702344075
354,X22,1,7.636269603
354,X23,1,8.705331134
354,X24,1,8.652248422
354,X25,1,8.599510234
354,X26,0,7.901747519
354,X27,0,7.993957548
354,X28,0,8.349011198
354,X29,1,8.379309484
354,X3,1,8.867568333
354,X30,1,8.587465244
354,X31,1,8.131530711
354,X32,0,7.926241523
354,X33,0,7.694848072
354,X34,0,7.742835955
354,X35,0,8.263590433
354,X36,0,7.934871566
354,X37,1,8.101374671
354,X38,1,8.756839815
354,X39,1,8.129764446
354,X4,1,8.510369966
354,X40,0,8.334711622
354,X5,1,8.356554845
354,X6,0,8.004365565
354,X7,1,8.556413905
354,X8,1,7.943072717
354,X9,0,8.400209836
355,X1,1,8.521185213
355,X10,1,7.881182202
355,X11,1,8.933268479
355,X12,0,7.930206207
355,X13,0,7.582738489
355,X14,0,7.815610532
355,X15,1,7.880426344
355,X16,1,8.482394686
355,X17,0,7.288927695
355,X18,1,7.648263031
355,X19,0,7.924072325
355,X2,1,8.690474004
355,X20,0,7.930206207
355,X21,0,8.026823576
355,X22,1,7.216709487
355,X23,0,7.321849714
355,X24,1,7.648263031
355,X25,1,7.788626066
355,X26,0,7.671826798
355,X27,0,8.03818918
355,X28,1,7.655864018
355,X29,0,8.29304914
355,X3,0,8.529516941
355,X30,1,8.381144347
355,X31,1,7.777792626
355,X32,1,8.232971791
355,X33,1,7.694848072
355,X34,1,8.005033345
355,X35,0,8.314097335
355,X36,1,7.835974582
355,X37,1,7.74586823
355,X38,0,7.971085754
355,X39,1,8.48941081
355,X4,0,8.144679183
355,X40,1,7.918628653
355,X5,1,8.577911926
355,X6,0,8.000014094
355,X7,0,8.349720837
355,X8,1,8.123557835
355,X9,0,8.16905315
356,X1,0,8.960082528
356,X10,1,7.557994959
356,X11,0,7.677400431
356,X12,0,7.738052298
356,X13,1,8.107117471
356,X14,1,7.883446354
356,X15,1,7.557994959
356,X16,0,7.282073658
356,X17,0,7.313886832
356,X18,1,7.117205503
356,X19,0,7.6666902
356,X2,1,8.222016437
356,X20,1,8.344980369
356,X21,0,7.881937489
356,X22,0,8.843037725
356,X23,1,6.73459166
356,X24,1,9.182455168
356,X25,1,7.059617628
356,X26,0,7.470224136
356,X27,1,10.61643736
356,X28,1,8.901775089
356,X29,0,6.542471961
356,X3,0,7.474772182
356,X30,0,6.349138991
356,X31,1,6.01615716
356,X32,0,6.210600077
356,X33,0,5.948034989
356,X34,0,6.418364936
356,X35,0,7.277247727
356,X36,0,6.073044534
356,X37,1,5.953243334
356,X38,0,7.553810852
356,X39,1,6.226536669
356,X4,1,8.282230063
356,X40,1,5.913503006
356,X5,1,7.742835955
356,X6,0,7.948385285
356,X7,1,8.489821995
356,X8,1,7.797702036
356,X9,0,7.651120176
357,X1,1,9.368454615
357,X10,0,8.781094735
357,X11,0,8.014004995
357,X12,1,8.135932772
357,X13,1,8.135932772
357,X14,0,8.576781983
357,X15,1,7.945909599
357,X16,0,8.106212903
357,X17,1,8.187021067
357,X18,1,8.699181359
357,X19,1,8.232971791
357,X2,1,8.724695047
357,X20,1,7.5416831
357,X21,1,8.335431478
357,X22,0,8.690810308
357,X23,0,8.135932772
357,X24,0,7.628031127
357,X25,0,8.027802848
357,X26,1,8.485702524
357,X27,0,8.032684876
357,X28,1,7.902117546
357,X29,0,7.582229194
357,X3,0,8.406261631
357,X30,1,8.332067707
357,X31,1,7.645397699
357,X32,1,7.928045601
357,X33,1,7.522400231
357,X34,0,7.896924656
357,X35,1,7.467371067
357,X36,1,8.04205641
357,X37,0,8.127404563
357,X38,0,8.528924114
357,X39,0,7.25488481
357,X4,1,8.304494898
357,X40,0,7.176254532
357,X5,0,7.714677474
357,X6,0,8.219864742
357,X7,0,8.452761331
357,X8,1,8.07121854
357,X9,0,8.649623979
358,X1,1,8.849227021
358,X10,0,7.390181428
358,X11,1,8.631414336
358,X12,0,8.627839712
358,X13,1,8.857657449
358,X14,0,9.094143578
358,X15,0,8.355850041
358,X16,1,8.069655307
358,X17,1,7.871692664
358,X18,0,8.531490496
358,X19,1,8.635864721
358,X2,1,8.915566546
358,X20,1,7.878155337
358,X21,0,7.887208586
358,X22,1,7.969011781
358,X23,0,8.475328987
358,X24,1,7.89319887
358,X25,1,7.526178913
358,X26,0,8.802071337
358,X27,0,7.79893331
358,X28,0,7.946263644
358,X29,1,7.535830463
358,X3,1,8.513586696
358,X30,0,7.691200098
358,X31,1,8.159088655
358,X32,1,8.047189562
358,X33,1,8.055157732
358,X34,1,8.275376375
358,X35,0,7.701652363
358,X36,1,7.477038472
358,X37,0,8.074337694
358,X38,0,8.131530711
358,X39,1,7.499976541
358,X4,1,8.98794654
358,X40,1,8.555066844
358,X5,0,8.187021067
358,X6,0,8.762489547
358,X7,0,8.528330936
358,X8,1,8.201111644
358,X9,0,7.825644732
359,X1,1,8.430109085
359,X2,1,8.526549286
359,X3,1,7.934155234
359,X4,0,8.849944227
359,X5,0,9.180087329
359,X6,1,8.497602542
359,X7,1,7.96797318
359,X8,1,7.831617276
359,X9,1,7.99530662
359,X10,0,8.571302517
359,X11,0,8.124150603
359,X12,0,8.355850041
359,X13,1,8.885025658
359,X14,1,8.949235314
359,X15,1,8.471149253
359,X16,1,8.10952566
359,X17,0,8.847791065
359,X18,1,7.856706793
359,X19,1,8.990067696
359,X20,1,8.534443545
359,X21,1,8.974871171
359,X22,0,8.718990525
359,X23,0,8.398184405
359,X24,1,7.942717541
359,X25,1,8.364042012
359,X26,1,7.890208213
359,X27,1,7.856706793
359,X28,0,7.80588204
359,X29,1,7.899153483
359,X30,0,8.291797105
359,X31,1,8.277666161
359,X32,1,8.055475142
359,X33,1,7.779048645
359,X34,1,7.785720897
359,X35,0,9.120634459
359,X36,0,8.055157732
359,X37,0,8.32530603
359,X38,0,8.636042325
359,X39,0,8.652772486
359,X40,1,8.504107952
360,X1,1,9.193601048
360,X2,0,8.487558386
360,X3,1,8.173857455
360,X4,0,8.44719982
360,X5,0,8.107720062
360,X6,0,8.780480107
360,X7,1,8.66733585
360,X8,1,8.153637486
360,X9,1,8.422442855
360,X10,1,8.769817872
360,X11,0,8.08085642
360,X12,0,7.993619995
360,X13,0,8.144388866
360,X14,1,8.337827262
360,X15,1,8.230843564
360,X16,1,7.646831391
360,X17,1,7.312553498
360,X18,1,8.315077007
360,X19,1,7.817222786
360,X20,0,8.442254105
360,X21,0,8.280204233
360,X22,1,7.475339237
360,X23,0,7.888334501
360,X24,1,7.900266037
360,X25,1,7.774015077
360,X26,1,8.917846743
360,X27,0,9.588982266
360,X28,1,7.628031127
360,X29,0,7.883069351
360,X30,1,7.491645474
360,X31,0,7.886081402
360,X32,0,7.941295571
360,X33,1,8.529121762
360,X34,0,7.678788998
360,X35,1,7.70391021
360,X36,1,7.702556113
360,X37,1,7.744136628
360,X38,0,7.200424893
360,X39,0,7.647786045
360,X40,0,8.173011312
361,X1,0,9.222466552
361,X2,1,8.112527763
361,X3,1,8.085794701
361,X4,1,8.336869637
361,X5,1,8.194781638
361,X6,0,8.036249942
361,X7,1,8.690978417
361,X8,0,9.098514557
361,X9,0,9.640172837
361,X10,0,9.139273924
361,X11,1,9.021115039
361,X12,0,8.74049673
361,X13,0,8.005033345
361,X14,0,8.68016202
361,X15,1,8.187577396
361,X16,1,9.539859923
361,X17,1,8.791486027
361,X18,0,9.413934064
361,X19,0,8.131824785
361,X20,0,7.999007213
361,X21,0,8.242229891
361,X22,1,8.349957272
361,X23,1,10.69806253
361,X24,1,8.49943647
361,X25,1,8.435332165
361,X26,0,7.918628653
361,X27,0,8.214465161
361,X28,1,8.381602537
361,X29,1,9.406400455
361,X30,1,9.368966735
361,X31,0,8.486527777
361,X32,0,9.097507564
361,X33,0,8.837536046
361,X34,1,8.218247927
361,X35,1,8.100768243
361,X36,0,9.092907275
361,X37,0,9.540722674
361,X38,0,9.063463176
361,X39,1,8.810012048
361,X40,1,8.922924931
362,X1,1,10.02473126
362,X2,1,8.812099109
362,X3,0,8.460834458
362,X4,1,8.563122123
362,X5,1,8.049107721
362,X6,0,8.102889135
362,X7,1,10.19932379
362,X8,0,8.064007347
362,X9,1,8.326032686
362,X10,1,8.191740021
362,X11,0,8.423761247
362,X12,1,7.922623574
362,X13,1,8.869679375
362,X14,1,8.627839712
362,X15,0,8.613048677
362,X16,0,8.548110294
362,X17,1,8.271292653
362,X18,0,8.318986125
362,X19,1,9.012986392
362,X20,1,8.760766624
362,X21,1,8.442254105
362,X22,0,8.062747901
362,X23,1,7.876258882
362,X24,1,7.95927596
362,X25,0,8.020927719
362,X26,1,8.911934336
362,X27,1,8.385944905
362,X28,1,7.900636613
362,X29,0,8.34664209
362,X30,1,8.46252579
362,X31,0,8.656607247
362,X32,1,8.440528106
362,X33,1,8.631414336
362,X34,0,8.491054534
362,X35,0,8.291045131
362,X36,0,8.118505068
362,X37,0,8.209308412
362,X38,0,8.212025805
362,X39,0,7.862882035
362,X40,0,8.242493153
363,X1,0,8.328934042
363,X2,1,8.731820583
363,X3,1,7.896180609
363,X4,0,8.644706512
363,X5,1,7.920809679
363,X6,1,8.54907938
363,X7,1,8.017966703
363,X8,1,8.687273462
363,X9,0,8.234299636
363,X10,1,7.988542983
363,X11,0,7.795234929
363,X12,0,8.42156296
363,X13,0,8.104099056
363,X14,0,7.263329617
363,X15,1,7.519692404
363,X16,1,8.398860004
363,X17,1,8.751474487
363,X18,0,8.23110984
363,X19,0,8.191186005
363,X20,0,7.870547845
363,X21,0,8.756997184
363,X22,1,8.390949465
363,X23,1,8.303752416
363,X24,1,8.581294117
363,X25,0,8.163371316
363,X26,1,8.506738734
363,X27,1,8.495356497
363,X28,0,7.818027939
363,X29,1,7.875119281
363,X30,1,8.15017927
363,X31,1,7.180831199
363,X32,0,8.149890544
363,X33,0,7.671826798
363,X34,1,8.175547596
363,X35,0,7.776115477
363,X36,1,7.573531263
363,X37,0,8.040446881
363,X38,1,7.762170607
363,X39,0,7.703007682
363,X40,0,7.976251944
364,X1,0,8.443331343
364,X2,1,8.048788284
364,X3,0,8.493105396
364,X4,1,7.687080156
364,X5,1,7.89469085
364,X6,1,7.494986234
364,X7,1,7.575584652
