subj_idx,trial,response,rt
1,X1,1,8.946374826
1,X2,0,7.98752448
1,X3,0,7.172424577
1,X4,1,7.859799181
1,X5,1,7.580189418
1,X6,1,7.945555428
1,X7,0,8.261268151
1,X8,0,7.945555428
1,X9,1,8.379309484
1,X10,1,7.880048201
1,X11,0,8.216358332
1,X12,0,7.383368147
1,X13,1,7.963807953
1,X14,0,8.003363059
1,X15,0,7.733245647
1,X16,1,7.440146681
1,X17,1,7.010311867
1,X18,0,8.103796713
1,X19,0,7.619233416
1,X20,0,8.356319966
1,X21,0,8.242756346
1,X22,1,8.765302489
1,X23,0,7.454141078
1,X24,1,8.531687638
1,X25,0,7.590852124
1,X26,1,8.240912542
1,X27,0,7.939871576
1,X28,1,7.797702036
1,X29,0,8.178358166
1,X30,1,7.160069208
1,X31,1,7.939515261
1,X32,0,7.21303166
1,X33,0,7.483806688
1,X34,1,6.66440902
1,X35,1,6.733401892
1,X36,0,7.864804003
1,X37,1,6.796823718
1,X38,0,7.104144093
1,X39,1,6.583409222
1,X40,0,7.146772179
2,X1,1,11.27174523
2,X2,0,10.22542611
2,X3,0,10.19159453
2,X4,1,10.72698294
2,X5,1,8.620110725
2,X6,1,9.196342862
2,X7,1,7.992606652
2,X8,1,10.75888113
2,X9,1,7.687538766
2,X10,1,8.053887084
2,X11,1,10.16277015
2,X12,0,10.60154764
2,X13,0,7.976938757
2,X14,1,9.283869605
2,X15,0,7.862112212
2,X16,1,10.12498976
2,X17,1,7.332369206
2,X18,0,7.236339343
2,X19,1,8.046549357
2,X20,1,8.298788394
2,X21,1,9.708870718
2,X22,0,9.466222132
2,X23,0,8.344980369
2,X24,0,8.868694777
2,X25,0,7.793586803
2,X26,0,9.695047868
2,X27,1,7.941295571
2,X28,0,8.925454387
2,X29,0,7.895436007
2,X30,0,8.108021221
2,X31,1,7.846980982
2,X32,1,8.426830751
2,X33,0,7.6989362
2,X34,0,7.347943823
2,X35,1,7.207118856
2,X36,0,7.771067086
2,X37,1,9.133027269
2,X38,0,8.071530894
2,X39,0,8.163086376
2,X40,0,7.984462732
3,X1,0,8.522976436
3,X2,1,8.021912779
3,X3,1,8.02975852
3,X4,0,7.643482907
3,X5,0,7.662467815
3,X6,0,8.000684785
3,X7,1,7.612336837
3,X8,1,8.195057691
3,X9,0,7.862882035
3,X10,0,7.895808377
3,X11,1,8.112227958
3,X12,1,8.163656176
3,X13,1,8.28172399
3,X14,1,8.163656176
3,X15,0,7.563719668
3,X16,1,8.149890544
3,X17,0,7.841099765
3,X18,1,7.951207156
3,X19,1,8.124150603
3,X20,0,7.366445148
3,X21,1,8.57753542
3,X22,0,7.973499964
3,X23,1,7.995643604
3,X24,0,7.87207398
3,X25,0,8.231908244
3,X26,0,7.856706793
3,X27,0,7.454141078
3,X28,1,8.628913441
3,X29,1,8.040124664
3,X30,0,7.710205194
3,X31,0,7.841099765
3,X32,1,7.793174347
3,X33,1,7.486052618
3,X34,1,7.351799869
3,X35,1,7.720905252
3,X36,1,8.194781638
3,X37,1,7.973499964
3,X38,0,8.107418812
3,X39,1,8.019283793
3,X40,1,7.486052618
4,X1,0,7.996317232
4,X2,1,7.887584032
4,X3,0,7.699842407
4,X4,1,10.10438549
4,X5,0,7.822444729
4,X6,1,10.94006485
4,X7,1,7.455876687
4,X8,0,7.975220839
4,X9,1,7.699389406
4,X10,0,7.427738841
4,X11,1,7.589841512
4,X12,1,7.780720886
4,X13,1,7.926602599
4,X14,0,7.11395611
4,X15,0,6.755768922
4,X16,1,7.40731771
4,X17,1,7.836369761
4,X18,0,8.537975731
4,X19,0,7.696667082
4,X20,1,6.921658184
4,X21,1,7.820439515
4,X22,1,6.582025139
4,X23,1,7.828038032
4,X24,1,10.16423513
4,X25,0,7.895436007
4,X26,1,7.35372233
4,X27,0,7.17930797
4,X28,0,6.827629235
4,X29,0,6.858565035
4,X30,1,7.187657164
4,X31,0,7.43543802
4,X32,0,8.462948177
4,X33,1,7.286876412
4,X34,0,10.39387575
4,X35,1,7.239214974
4,X36,1,7.33823815
4,X37,0,6.632001777
4,X38,0,7.692569648
4,X39,1,7.01571242
4,X40,0,6.883462586
5,X1,1,8.722091302
5,X2,0,8.677780256
5,X3,1,8.576027977
5,X4,1,8.693999568
5,X5,0,8.662850764
5,X6,1,9.019300925
5,X7,1,8.495560891
5,X8,0,8.660254034
5,X9,1,8.442254105
5,X10,1,8.098946749
5,X11,1,8.366602833
5,X12,0,8.447628728
5,X13,0,8.747828608
5,X14,1,9.221181395
5,X15,0,7.813995675
5,X16,1,8.267192186
5,X17,1,8.210396255
5,X18,1,8.365672384
5,X19,0,8.480736654
5,X20,1,9.101529466
5,X21,0,9.157045075
5,X22,0,8.235095497
5,X23,1,8.120588712
5,X24,0,8.960210956
5,X25,0,8.185907481
5,X26,1,9.334061299
5,X27,1,8.238008249
5,X28,1,8.407155086
5,X29,1,8.402679805
5,X30,0,7.984462732
5,X31,1,9.024492605
5,X32,1,7.987184748
5,X33,1,8.878079256
5,X34,0,7.89469085
5,X35,1,8.74878099
5,X36,1,8.101980732
5,X37,0,8.234299636
5,X38,1,8.192016915
5,X39,1,8.204398418
5,X40,1,9.5139204
6,X1,1,8.490438454
6,X2,0,8.238801166
6,X3,1,7.90359629
6,X4,1,8.272826004
6,X5,0,9.790990521
6,X6,1,8.579416535
6,X7,0,7.344072851
6,X8,0,7.323830566
6,X9,0,7.145196135
6,X10,1,7.835579247
6,X11,1,8.37262974
6,X12,0,7.070724107
6,X13,0,7.268223021
6,X14,0,8.077447149
6,X15,0,8.168486417
6,X16,1,8.018954683
6,X17,1,6.661854741
6,X18,1,6.967909202
6,X19,0,7.724888439
6,X20,1,7.942006808
6,X21,1,8.307459327
6,X22,0,7.852050207
6,X23,0,8.585225602
6,X24,0,9.275940829
6,X25,1,8.826587831
6,X26,1,8.364042012
6,X27,1,8.28172399
6,X28,1,7.018401799
6,X29,0,8.175547596
6,X30,0,7.282073658
6,X31,1,7.332369206
6,X32,0,7.379008128
6,X33,0,8.348537825
6,X34,1,8.152198016
6,X35,1,7.151485464
6,X36,1,5.198497031
6,X37,0,7.693481641
6,X38,0,6.572282543
6,X39,0,7.014814351
6,X40,1,8.664405571
7,X1,1,8.252706677
7,X2,0,7.834392303
7,X3,0,8.452121195
7,X4,0,7.743703258
7,X5,0,8.300031712
7,X6,1,8.136225555
7,X7,1,7.942362238
7,X8,1,8.668711839
7,X9,1,7.731053144
7,X10,0,7.813591553
7,X11,0,8.027476531
7,X12,1,8.627302414
7,X13,0,8.033982735
7,X14,1,7.887208586
7,X15,1,7.503289631
7,X16,1,8.078998259
7,X17,1,9.30637756
7,X18,1,8.653819789
7,X19,1,8.936561205
7,X20,0,9.221478116
7,X21,1,7.347299701
7,X22,0,7.809135398
7,X23,0,8.089789176
7,X24,0,7.969011781
7,X25,1,7.440733707
7,X26,0,9.134646528
7,X27,1,7.898039691
7,X28,1,8.249836485
7,X29,0,8.324093761
7,X30,0,8.162231065
7,X31,0,8.283241441
7,X32,1,7.604396349
7,X33,1,7.568379268
7,X34,1,7.834788107
7,X35,0,7.827639546
7,X36,1,8.305236829
7,X37,1,7.840312983
7,X38,1,8.443115988
7,X39,1,5.384495063
7,X40,0,7.719129841
8,X1,1,9.008101781
8,X2,1,8.177796683
8,X3,0,9.366232392
8,X4,0,8.461046031
8,X5,0,7.871311203
8,X6,0,8.271548375
8,X7,0,8.791486027
8,X8,0,8.702011628
8,X9,0,9.384629757
8,X10,0,8.309430742
8,X11,0,8.873047799
8,X12,0,7.699389406
8,X13,1,9.44129335
8,X14,1,8.843470782
8,X15,0,9.187481078
8,X16,0,8.55101474
8,X17,0,8.56902634
8,X18,1,8.569975377
8,X19,0,8.221210094
8,X20,1,8.709795058
8,X21,0,8.832003931
8,X22,1,9.072686207
8,X23,0,7.906915489
8,X24,0,9.21949831
8,X25,0,7.890208213
8,X26,0,8.128290172
8,X27,1,9.323669057
8,X28,0,10.34322525
8,X29,1,8.669055541
8,X30,0,8.269756948
8,X31,0,9.707168486
8,X32,0,8.264620829
8,X33,0,8.395477433
8,X34,1,9.253016646
8,X35,0,8.165363632
8,X36,0,8.605936401
8,X37,1,8.780633799
8,X38,0,8.744169389
8,X39,1,8.648221454
8,X40,1,11.08175786
9,X1,1,9.011767475
9,X2,1,8.555259392
9,X3,1,8.245384468
9,X4,0,8.822469572
9,X5,0,8.467792841
9,X6,1,8.425077903
9,X7,1,8.01763716
9,X8,0,8.069968149
9,X9,1,8.217438538
9,X10,0,8.094683649
9,X11,0,8.382747095
9,X12,1,7.956126351
9,X13,0,8.450625947
9,X14,1,7.761319181
9,X15,1,7.670894831
9,X16,0,7.645875825
9,X17,1,8.52337405
9,X18,1,7.489970899
9,X19,0,7.682021511
9,X20,1,8.472614148
9,X21,0,8.226573475
9,X22,1,8.082402254
9,X23,1,8.085178748
9,X24,0,9.196342862
9,X25,0,8.293299359
9,X26,0,8.129469765
9,X27,0,8.210939733
9,X28,1,7.803026644
9,X29,0,8.242756346
9,X30,0,7.97074039
9,X31,0,7.888334501
9,X32,0,7.446001498
9,X33,1,8.029432841
9,X34,0,8.005700679
9,X35,0,8.191463051
9,X36,1,8.053569169
9,X37,0,8.530109417
9,X38,0,7.792761721
9,X39,1,7.793174347
9,X40,1,8.082402254
10,X1,0,9.363061459
10,X2,0,8.063692634
10,X3,1,9.197964101
10,X4,0,8.421783007
10,X5,0,8.001355026
10,X6,1,8.785845338
10,X7,0,9.016998312
10,X8,0,8.561401446
10,X9,0,10.26958794
10,X10,0,9.466067273
10,X11,0,8.920522687
10,X12,0,8.574140472
10,X13,1,8.639410824
10,X14,1,8.072779333
10,X15,1,8.303504799
10,X16,1,8.422882512
10,X17,0,8.355379895
10,X18,1,8.602085658
10,X19,1,8.065893547
10,X20,0,9.127719343
10,X21,0,8.148445666
10,X22,0,9.412709624
10,X23,0,8.37609035
10,X24,1,8.13123655
10,X25,0,7.824845691
10,X26,0,8.74017673
10,X27,0,7.841885929
10,X28,1,7.993619995
10,X29,0,7.862112212
10,X30,1,8.367300102
10,X31,0,8.206856428
10,X32,1,8.259716961
10,X33,0,8.666474894
10,X34,0,8.178077464
10,X35,0,8.230577217
10,X36,0,8.074960359
10,X37,1,8.639233817
10,X38,0,8.124446856
10,X39,0,8.795582217
10,X40,0,8.323365694
11,X1,0,9.310095205
11,X2,1,8.520587424
11,X3,0,8.487764381
11,X4,1,8.557759153
11,X5,0,8.083637203
11,X6,1,8.513787398
11,X7,1,8.419580363
11,X8,1,8.342839804
11,X9,0,8.612321537
11,X10,0,8.691146499
11,X11,1,8.715224042
11,X12,0,8.900139988
11,X13,0,8.669570872
11,X14,0,8.628018747
11,X15,0,8.989569005
11,X16,0,8.593227878
11,X17,0,8.553717966
11,X18,0,8.501063809
11,X19,0,8.061802275
11,X20,1,8.461257559
11,X21,1,8.656433259
11,X22,0,8.545586266
11,X23,1,8.805824813
11,X24,0,8.616133139
11,X25,0,8.583542572
11,X26,0,8.625150333
11,X27,0,8.848078421
11,X28,0,7.952263309
11,X29,1,8.9692874
11,X30,1,8.30498958
11,X31,1,8.746239288
11,X32,1,8.388905171
11,X33,0,8.51559191
11,X34,1,8.862341964
11,X35,0,8.762802487
11,X36,0,8.705662479
11,X37,0,8.187855444
11,X38,1,8.594339401
11,X39,1,8.986446539
11,X40,0,7.651595574
12,X1,0,8.461680481
12,X2,1,8.736971085
12,X3,0,8.377931124
12,X4,1,8.36683531
12,X5,1,8.194781638
12,X6,1,8.005700679
12,X7,1,8.179199798
12,X8,1,8.307212627
12,X9,0,7.734121303
12,X10,0,8.117312462
12,X11,0,7.694848072
12,X12,0,8.29953457
12,X13,1,8.756210092
12,X14,1,8.417593826
12,X15,1,7.286876412
12,X16,0,7.419979924
12,X17,0,8.342125263
12,X18,0,8.621553207
12,X19,0,8.161089513
12,X20,1,7.334981879
12,X21,1,7.913521017
12,X22,1,7.554334824
12,X23,0,7.207859871
12,X24,1,7.425357887
12,X25,1,7.81197343
12,X26,1,8.114324709
12,X27,0,7.709756864
12,X28,1,7.709308333
12,X29,0,7.471932078
12,X30,0,7.471932078
12,X31,1,7.74109909
12,X32,0,8.976767625
12,X33,0,7.771910256
12,X34,0,7.871311203
12,X35,1,7.72753511
12,X36,0,8.034631033
12,X37,0,8.490849216
12,X38,1,7.824445931
12,X39,1,7.298445102
12,X40,0,7.351158226
13,X1,1,9.235325625
13,X2,0,8.222553638
13,X3,1,8.597851094
13,X4,0,8.267192186
13,X5,1,7.880426344
13,X6,0,8.83025057
13,X7,1,8.484049973
13,X8,0,8.29154651
13,X9,0,8.256607345
13,X10,1,7.591861715
13,X11,0,8.348064228
13,X12,0,7.493873887
13,X13,1,8.25244609
13,X14,1,8.013343181
13,X15,0,7.907283609
13,X16,0,7.081708586
13,X17,1,7.242797923
13,X18,0,8.229244417
13,X19,1,7.805474625
13,X20,0,8.424419791
13,X21,1,7.77569575
13,X22,0,8.412054873
13,X23,0,7.878155337
13,X24,0,8.834628222
13,X25,0,8.527737405
13,X26,0,9.530755814
13,X27,0,8.625688788
13,X28,1,7.646831391
13,X29,0,7.43543802
13,X30,0,8.326758815
13,X31,1,8.973858256
13,X32,0,8.153637486
13,X33,0,8.986696696
13,X34,0,8.71078434
13,X35,1,5.572154032
13,X36,1,7.724004657
13,X37,0,8.178919333
13,X38,0,8.561975334
13,X39,1,7.827639546
13,X40,1,8.185907481
14,X1,0,9.327234123
14,X2,0,8.047189562
14,X3,0,8.820847033
14,X4,0,9.252249775
14,X5,0,8.244859396
14,X6,0,9.174816816
14,X7,1,8.215547412
14,X8,1,8.119100838
14,X9,0,8.784468454
14,X10,1,8.495152061
14,X11,1,8.082711134
14,X12,1,8.004699511
14,X13,0,8.736489351
14,X14,1,7.824845691
14,X15,0,9.204121072
14,X16,1,8.763740721
14,X17,1,8.256088134
14,X18,1,8.041091004
14,X19,0,8.206583614
14,X20,1,8.568646473
14,X21,1,7.555381944
14,X22,0,8.472614148
14,X23,0,8.602636673
14,X24,1,8.381602537
14,X25,0,8.65608519
14,X26,1,7.562681247
14,X27,1,9.218407743
14,X28,1,7.659642955
14,X29,1,7.921898411
14,X30,1,8.534050308
14,X31,1,7.143617603
14,X32,1,8.322880022
14,X33,0,8.06117136
14,X34,1,9.991223667
14,X35,1,9.296976679
14,X36,1,8.110126802
14,X37,0,7.852050207
14,X38,1,7.484930283
14,X39,0,7.925157512
14,X40,0,7.318539549
15,X1,1,8.206856428
15,X2,0,7.870547845
15,X3,1,7.845416037
15,X4,0,7.544861069
15,X5,0,7.44775128
15,X6,1,8.050384453
15,X7,0,8.445052514
15,X8,1,8.286017468
15,X9,1,9.039670668
15,X10,0,8.386628821
15,X11,0,7.814399634
15,X12,1,7.959974528
15,X13,0,8.121183242
15,X14,0,7.028201432
15,X15,0,8.287025025
15,X16,1,7.930565854
15,X17,1,8.193953024
15,X18,1,7.821643126
15,X19,0,8.122074375
15,X20,1,7.724888439
15,X21,0,7.479299638
15,X22,1,7.554858521
15,X23,0,7.77317368
15,X24,0,7.794823152
15,X25,0,8.174421153
15,X26,1,7.441906728
15,X27,0,8.983816113
15,X28,1,8.356319966
15,X29,0,7.988203597
15,X30,0,7.515344571
15,X31,1,8.009363077
15,X32,1,8.235890726
15,X33,1,7.973155433
15,X34,1,7.748460024
15,X35,1,7.600402335
15,X36,0,7.678788998
15,X37,1,7.591357047
15,X38,1,7.879669915
15,X39,1,7.703459048
15,X40,1,7.993619995
16,X1,0,8.935508712
16,X2,1,8.510571315
16,X3,0,9.039314775
16,X4,1,8.04494705
16,X5,0,8.529911964
16,X6,0,8.33710913
16,X7,1,8.59858883
16,X8,0,7.812378206
16,X9,0,7.648739789
16,X10,1,7.71154898
16,X11,1,8.040446881
16,X12,1,8.223090551
16,X13,1,8.432724035
16,X14,0,8.494129252
16,X15,1,7.720461695
16,X16,0,8.400659375
16,X17,1,8.303999971
16,X18,1,8.13739583
16,X19,0,7.765569081
16,X20,0,8.840435439
16,X21,1,7.978653729
16,X22,0,9.032648084
16,X23,0,8.33062262
16,X24,1,7.201916318
16,X25,0,7.878155337
16,X26,0,8.440096141
16,X27,1,7.922261058
16,X28,0,8.234299636
16,X29,0,7.571988449
16,X30,0,7.932721027
16,X31,0,8.599878558
16,X32,1,8.928640371
16,X33,0,8.991313336
16,X34,1,7.845807503
16,X35,1,7.910590612
16,X36,1,8.668368019
16,X37,0,8.739216115
16,X38,1,7.791522819
16,X39,0,7.859413155
16,X40,1,8.92385758
17,X1,0,8.719153963
17,X2,0,8.862058677
17,X3,0,9.548881895
17,X4,1,8.32651683
17,X5,0,8.714731714
17,X6,0,8.576216532
17,X7,0,8.351374707
17,X8,1,8.822027323
17,X9,1,8.388450316
17,X10,0,8.269244521
17,X11,1,8.158229917
17,X12,0,7.824046011
17,X13,0,7.977625099
17,X14,0,7.889459149
17,X15,0,8.167635715
17,X16,0,8.681350778
17,X17,1,8.104401308
17,X18,1,7.901377354
17,X19,1,7.840312983
17,X20,0,8.192293731
17,X21,1,7.778211475
17,X22,1,8.603554357
17,X23,0,8.299285907
17,X24,0,8.260234292
17,X25,0,8.524565946
17,X26,1,7.705262475
17,X27,0,8.656781206
17,X28,1,8.111027838
17,X29,1,8.615589513
17,X30,1,5.476463552
17,X31,1,7.906915489
17,X32,1,8.34188697
17,X33,0,8.010027528
17,X34,0,7.562161631
17,X35,0,8.443546651
17,X36,0,8.243808424
17,X37,1,8.096817471
17,X38,1,8.028781162
17,X39,1,8.303257121
17,X40,1,8.554296279
18,X1,0,8.129469765
18,X2,0,8.968778235
18,X3,1,8.167351987
18,X4,0,9.612533466
18,X5,0,8.576405051
18,X6,0,8.42002128
18,X7,1,8.26821888
18,X8,0,8.443115988
18,X9,1,7.93522954
18,X10,0,8.988321188
18,X11,0,8.657476737
18,X12,1,8.052933037
18,X13,1,8.200837258
18,X14,1,8.395929104
18,X15,1,8.710619528
18,X16,1,7.966933498
18,X17,1,7.989560449
18,X18,0,8.180320875
18,X19,1,8.64453044
18,X20,1,7.912056888
18,X21,0,8.964951212
18,X22,0,8.77059433
18,X23,0,8.051978079
18,X24,0,8.504310566
18,X25,0,8.067776196
18,X26,0,8.178358166
18,X27,0,8.413165121
18,X28,0,7.784889296
18,X29,1,7.895063498
18,X30,0,8.206583614
18,X31,1,8.5754621
18,X32,1,8.357962966
18,X33,0,7.805067044
18,X34,0,7.99125393
18,X35,0,8.594524534
18,X36,1,8.574140472
18,X37,0,8.527539483
18,X38,0,9.706864211
18,X39,1,8.056743775
18,X40,0,8.272570608
19,X1,1,8.328692584
19,X2,0,8.032684876
19,X3,0,7.857093865
19,X4,0,7.127693699
19,X5,0,8.197263371
19,X6,1,7.707062655
19,X7,0,7.127693699
19,X8,1,7.761744985
19,X9,1,6.940222469
19,X10,1,7.285506549
19,X11,1,6.981934677
19,X12,1,7.848933726
19,X13,0,7.519149958
19,X14,0,7.722677516
19,X15,1,8.593598523
19,X16,1,9.484024935
19,X17,1,7.100851909
19,X18,0,7.600402335
19,X19,1,7.154615357
19,X20,0,7.687080156
19,X21,0,7.215239979
19,X22,1,7.929126487
19,X23,0,8.203577737
19,X24,0,7.907651595
19,X25,1,8.021584533
19,X26,0,8.021584533
19,X27,1,7.661056382
19,X28,1,8.365206834
19,X29,0,7.737616283
19,X30,1,7.294377299
19,X31,1,6.635946556
19,X32,1,7.323830566
19,X33,0,7.628517627
19,X34,0,8.116715625
19,X35,1,7.409136444
19,X36,0,6.692083743
19,X37,0,6.849066283
19,X38,0,8.616314282
19,X39,1,7.622663951
19,X40,1,6.678342115
20,X1,1,8.476162842
20,X2,0,7.862112212
20,X3,1,7.958227192
20,X4,1,8.071530894
20,X5,0,8.843182098
20,X6,0,8.248529125
20,X7,0,8.175547596
20,X8,1,8.678291112
20,X9,0,8.8469285
20,X10,1,8.289539485
20,X11,1,8.049107721
20,X12,1,8.403128235
20,X13,1,7.89319887
20,X14,1,8.585785983
20,X15,1,7.934513464
20,X16,0,8.496582238
20,X17,1,7.652545693
20,X18,0,8.023879993
20,X19,0,7.704811923
20,X20,1,8.089175679
20,X21,0,8.872627366
20,X22,0,7.743703258
20,X23,0,8.214194415
20,X24,0,8.775240459
20,X25,1,7.634337236
20,X26,1,7.629975707
20,X27,0,8.191740021
20,X28,1,7.757906208
20,X29,1,8.261526448
20,X30,0,8.091321274
20,X31,1,8.489821995
20,X32,1,8.039479919
20,X33,1,7.960672608
20,X34,0,7.829232538
20,X35,1,7.914983006
20,X36,0,8.051978079
20,X37,1,7.954021087
20,X38,1,8.020270473
20,X39,0,8.360539381
20,X40,0,8.161945799
21,X1,1,8.275376375
21,X2,0,7.741533589
21,X3,0,7.821643126
21,X4,1,6.908754779
21,X5,0,8.718663567
21,X6,0,9.009325173
21,X7,1,7.988203597
21,X8,0,8.872346979
21,X9,0,7.74543561
21,X10,1,9.014325488
21,X11,1,8.212568398
21,X12,0,8.4740769
21,X13,0,8.285765421
21,X14,1,7.17472431
21,X15,0,7.756623335
21,X16,0,7.754910272
21,X17,1,7.68017564
21,X18,1,8.749415407
21,X19,0,7.870165946
21,X20,1,8.463370385
21,X21,1,7.370230642
21,X22,1,8.390041406
21,X23,0,8.646816959
21,X24,0,8.706986763
21,X25,0,9.106423259
21,X26,1,7.405495663
21,X27,1,6.711740395
21,X28,0,6.978213743
21,X29,1,6.925595197
21,X30,0,7.023758955
21,X31,1,6.787844982
21,X32,0,7.488852956
21,X33,1,7.132497552
21,X34,0,7.729295674
21,X35,1,7.800572655
21,X36,0,7.580189418
21,X37,1,7.578145472
21,X38,1,8.210396255
21,X39,0,7.589335823
21,X40,1,8.043020885
22,X1,0,9.276876896
22,X2,1,8.941676305
22,X3,1,8.50167338
22,X4,0,9.342070143
22,X5,0,8.751316247
22,X6,1,9.024131268
22,X7,0,7.892452044
22,X8,0,8.267705665
22,X9,0,9.212238569
22,X10,1,9.015662793
22,X11,0,8.540519017
22,X12,0,8.576593535
22,X13,1,8.494129252
22,X14,1,9.011401509
22,X15,0,8.271292653
22,X16,0,9.11712799
22,X17,0,9.520321952
22,X18,0,7.786967003
22,X19,0,8.607399459
22,X20,0,8.577723691
22,X21,0,8.74766979
22,X22,1,8.096208272
22,X23,0,8.528133131
22,X24,0,9.120196822
22,X25,0,8.210396255
22,X26,0,8.819517541
22,X27,1,8.369388997
22,X28,0,8.551401363
22,X29,1,9.485317072
22,X30,1,8.196987927
22,X31,0,8.335431478
22,X32,0,8.452121195
22,X33,0,8.352082671
22,X34,0,8.492900499
22,X35,0,8.512984347
22,X36,0,8.514188682
22,X37,0,8.969541885
22,X38,1,8.559294367
22,X39,1,8.801770449
22,X40,0,8.204945165
23,X1,1,8.457018468
23,X2,0,8.59858883
23,X3,0,7.439559309
23,X4,1,8.210668031
23,X5,1,7.157735484
23,X6,0,7.796880343
23,X7,1,7.917900586
23,X8,1,7.797702036
23,X9,1,7.811568489
23,X10,0,7.811163385
23,X11,0,7.933079772
23,X12,0,7.895808377
23,X13,0,7.865955414
23,X14,0,7.479299638
23,X15,0,9.542015406
23,X16,0,8.130942302
23,X17,1,7.892452044
23,X18,1,7.941651253
23,X19,1,8.299783172
23,X20,1,7.753623547
23,X21,1,7.905810313
23,X22,0,7.749322465
23,X23,1,7.908387159
23,X24,0,7.698482788
23,X25,1,7.280008253
23,X26,1,9.501142572
23,X27,1,7.756623335
23,X28,1,7.028201432
23,X29,0,5.214935758
23,X30,0,8.19836439
23,X31,1,5.472270674
23,X32,0,7.767687277
23,X33,1,7.376508126
23,X34,0,8.063377822
23,X35,1,5.159055299
23,X36,1,8.009030685
23,X37,1,7.838343316
23,X38,1,7.359467638
23,X39,1,7.299797367
23,X40,0,8.028455164
24,X1,0,9.494240301
24,X2,1,8.451053389
24,X3,0,8.765770544
24,X4,0,8.556413905
24,X5,0,8.516392871
24,X6,1,8.175266104
24,X7,0,8.239857411
24,X8,0,9.189525232
24,X9,0,8.513385953
24,X10,1,8.145839613
24,X11,1,8.835792367
24,X12,1,8.304494898
24,X13,1,8.45723085
24,X14,1,7.933438388
24,X15,1,8.025189322
24,X16,0,7.60339934
24,X17,1,9.224440496
24,X18,1,8.892199092
24,X19,0,9.507700461
24,X20,0,8.309676896
24,X21,0,8.311889558
24,X22,0,8.600062669
24,X23,0,8.240121298
24,X24,0,8.435983136
24,X25,1,7.981391582
24,X26,1,8.467792841
24,X27,0,8.206037763
24,X28,1,8.952993499
24,X29,0,8.623353387
24,X30,1,8.50795061
24,X31,0,8.845633256
24,X32,1,8.274102002
24,X33,1,8.236950048
24,X34,1,9.137769679
24,X35,1,8.536799721
24,X36,1,8.327484416
24,X37,0,8.955835144
24,X38,1,8.638348313
24,X39,0,8.994544758
24,X40,1,8.547528391
25,X1,0,7.937731775
25,X2,1,7.732369222
25,X3,0,8.655214489
25,X4,1,9.21592475
25,X5,1,9.057655284
25,X6,0,9.089640587
25,X7,1,9.001222992
25,X8,0,9.004053938
25,X9,0,8.66733585
25,X10,1,9.123365358
25,X11,1,9.307829993
25,X12,1,9.148464968
25,X13,0,9.513994214
25,X14,1,8.138564737
25,X15,1,9.495519314
25,X16,1,9.232395363
25,X17,0,7.503840747
25,X18,0,9.022322623
25,X19,0,9.248983996
25,X20,1,10.5870136
25,X21,0,9.105979357
25,X22,0,9.029297997
25,X23,1,11.72271626
25,X24,1,8.656433259
25,X25,0,8.231376046
25,X26,1,9.110299018
25,X27,0,8.405143688
25,X28,0,8.609954671
25,X29,1,8.120886021
25,X30,0,8.239857411
25,X31,0,8.447628728
25,X32,1,8.633374946
25,X33,1,8.655040258
25,X34,1,8.631771096
25,X35,1,8.619208117
25,X36,1,8.650149419
25,X37,0,8.551787836
25,X38,0,8.849083519
25,X39,0,9.027738776
25,X40,0,8.692490133
26,X1,0,8.495765244
26,X2,0,7.98752448
26,X3,0,8.610319169
26,X4,1,8.407824654
26,X5,0,8.30844552
26,X6,1,8.165079259
26,X7,1,8.035278911
26,X8,0,8.316300249
26,X9,1,8.101071503
26,X10,0,8.061486867
26,X11,0,7.870547845
26,X12,0,8.343077871
26,X13,0,8.442469645
26,X14,0,7.786551806
26,X15,0,8.315811132
26,X16,0,7.914252279
26,X17,1,7.549609165
26,X18,0,7.641084249
26,X19,1,7.794411206
26,X20,1,8.382060517
26,X21,0,8.405814603
26,X22,0,7.860570786
26,X23,0,7.682482447
26,X24,0,7.431891917
26,X25,1,7.474204806
26,X26,0,7.803435057
26,X27,1,7.301822342
26,X28,1,8.391176351
26,X29,0,7.790282381
26,X30,1,8.353497099
26,X31,0,8.271292653
26,X32,1,7.932362154
26,X33,0,5.869296913
26,X34,0,8.245121966
26,X35,1,8.442900587
26,X36,0,7.480428306
26,X37,0,7.503840747
26,X38,1,7.578145472
26,X39,1,7.433075349
26,X40,1,7.590346946
27,X1,1,8.337827262
27,X2,0,8.354203563
27,X3,1,8.399984991
27,X4,0,7.869019376
27,X5,1,7.631916513
27,X6,1,8.732143268
27,X7,1,7.765993079
27,X8,1,8.109826276
27,X9,0,8.536014946
27,X10,0,8.426611813
27,X11,0,8.117014088
27,X12,0,7.608374474
27,X13,0,8.100161447
27,X14,1,8.750049422
27,X15,1,9.361343246
27,X16,0,8.396380571
27,X17,1,8.352082671
27,X18,0,9.050992879
27,X19,1,9.286467732
27,X20,0,9.581559041
27,X21,1,8.295798111
27,X22,1,6.831953566
27,X23,0,5.659482216
27,X24,1,10.34325746
27,X25,1,7.865955414
27,X26,1,7.425953657
27,X27,0,7.724446646
27,X28,0,8.734721004
27,X29,0,7.647308832
27,X30,1,7.922623574
27,X31,1,7.96797318
27,X32,0,8.325548307
27,X33,1,7.31521839
27,X34,1,8.195057691
27,X35,0,7.351799869
27,X36,0,7.421775794
27,X37,1,7.260522598
27,X38,1,9.679843876
27,X39,0,9.606159103
27,X40,0,7.190676034
28,X1,1,8.906799884
28,X2,0,8.677609913
28,X3,0,8.726643416
28,X4,1,8.916640227
28,X5,0,8.948845729
28,X6,0,8.358431899
28,X7,1,9.029058275
28,X8,0,8.395025557
28,X9,1,7.934513464
28,X10,1,8.454466362
28,X11,1,8.579040595
28,X12,0,9.506957408
28,X13,0,8.457018468
28,X14,1,8.257385656
28,X15,1,8.907476978
28,X16,1,8.602820277
28,X17,0,8.798152718
28,X18,0,8.660600655
28,X19,0,7.999007213
28,X20,1,8.649098262
28,X21,1,8.246433786
28,X22,0,8.586532669
28,X23,1,8.699514748
28,X24,0,7.797702036
28,X25,1,8.340933226
28,X26,1,8.155936338
28,X27,1,8.125630988
28,X28,1,8.45723085
28,X29,1,8.742733867
28,X30,0,7.877776333
28,X31,1,8.519989279
28,X32,1,8.354674262
28,X33,1,8.454892165
28,X34,1,8.260492857
28,X35,1,8.379309484
28,X36,1,8.337348564
28,X37,0,8.915835074
28,X38,0,8.53542596
28,X39,0,8.132118773
28,X40,1,8.324336333
29,X1,1,9.183071945
29,X2,1,9.113829472
29,X3,0,8.952734767
29,X4,1,9.089076284
29,X5,0,8.849944227
29,X6,0,8.947546015
29,X7,0,8.948845729
29,X8,1,8.841881989
29,X9,1,8.791790024
29,X10,1,9.186047679
29,X11,1,9.20532783
29,X12,0,8.783089672
29,X13,0,8.849944227
29,X14,1,8.844768828
29,X15,1,8.820404065
29,X16,0,9.126306376
29,X17,0,8.619388704
29,X18,1,8.793763759
29,X19,1,8.663196486
29,X20,0,8.92598609
29,X21,0,8.591558273
29,X22,1,9.02989705
29,X23,1,8.704336438
29,X24,0,8.651199471
29,X25,1,8.514990768
29,X26,0,8.552753367
29,X27,1,8.542665987
29,X28,1,8.629271095
29,X29,1,8.76810754
29,X30,0,8.717354666
29,X31,0,8.67180091
29,X32,0,8.463581422
29,X33,0,8.717354666
29,X34,0,8.741775707
29,X35,0,5.739792912
29,X36,1,8.953769295
29,X37,0,9.028098812
29,X38,0,8.483222672
29,X39,0,8.779865101
29,X40,1,8.517593111
30,X1,1,8.907612341
30,X2,1,8.851663425
30,X3,1,8.497806478
30,X4,0,8.709960006
30,X5,0,8.54422453
30,X6,1,8.747987402
30,X7,0,8.224163513
30,X8,1,7.838343316
30,X9,1,8.072779333
30,X10,0,8.063062911
30,X11,0,7.997326823
30,X12,0,8.208219383
30,X13,1,7.665284718
30,X14,1,8.271292653
30,X15,0,9.567735057
30,X16,0,8.361941906
30,X17,0,8.59137259
30,X18,0,8.351610751
30,X19,0,8.415160466
30,X20,0,8.459987718
30,X21,1,8.414052432
30,X22,1,8.603737793
30,X23,0,7.650644551
30,X24,1,8.562740006
30,X25,0,8.571491965
30,X26,0,8.209580483
30,X27,1,8.015657615
30,X28,0,7.90617884
30,X29,0,7.910223707
30,X30,0,7.77443551
30,X31,1,8.132118773
30,X32,0,7.734996194
30,X33,1,8.735685945
30,X34,0,8.170468578
30,X35,1,8.163940955
30,X36,0,7.672292456
30,X37,0,7.590852124
30,X38,0,8.283241441
30,X39,0,8.544808358
30,X40,1,8.642768014
31,X1,1,10.11956621
31,X2,0,7.983098941
31,X3,0,8.437283808
31,X4,1,8.131530711
31,X5,0,7.843456404
31,X6,1,8.676416697
31,X7,0,8.313852267
31,X8,1,7.266827348
31,X9,0,8.321907968
31,X10,0,8.370084326
31,X11,1,7.711996507
31,X12,0,7.599901959
31,X13,0,8.130942302
31,X14,1,8.005367067
31,X15,1,9.165865882
31,X16,0,7.385851078
31,X17,1,7.722677516
31,X18,0,7.988542983
31,X19,1,7.886832999
31,X20,1,8.032360148
31,X21,0,8.021584533
31,X22,1,8.883501584
31,X23,1,8.392536587
31,X24,0,7.977625099
31,X25,1,8.026823576
31,X26,1,8.506738734
31,X27,0,8.392536587
31,X28,0,8.452121195
31,X29,0,8.145259567
31,X30,0,7.522400231
31,X31,0,8.221478947
31,X32,1,8.444192299
31,X33,0,8.220133957
31,X34,0,8.307952545
31,X35,0,7.924434185
31,X36,0,8.233768709
31,X37,0,7.760893196
31,X38,0,9.547740749
31,X39,1,7.332369206
31,X40,0,8.559102594
32,X1,0,9.532133974
32,X2,1,9.04629086
32,X3,0,8.177515824
32,X4,0,8.342601681
32,X5,0,8.457655479
32,X6,1,8.413830678
32,X7,1,8.037543185
32,X8,0,8.255828427
32,X9,1,8.293549515
32,X10,0,8.340217321
32,X11,0,8.947936107
32,X12,1,8.905986765
32,X13,1,8.190354404
32,X14,0,8.27512163
32,X15,1,7.658227526
32,X16,0,8.318010278
32,X17,1,8.829665433
32,X18,0,8.537975731
32,X19,1,8.837826364
32,X20,1,8.24143969
32,X21,0,8.033334016
32,X22,1,8.216088099
32,X23,1,7.826443135
32,X24,0,8.167919363
32,X25,0,8.773384597
32,X26,1,8.087640288
32,X27,1,8.24617156
32,X28,0,8.03657341
32,X29,0,7.430114139
32,X30,1,8.347827346
32,X31,1,8.799510901
32,X32,0,7.996653875
32,X33,0,8.912338567
32,X34,0,7.933079772
32,X35,1,8.012349639
32,X36,0,8.77059433
32,X37,0,7.958926493
32,X38,1,8.039802344
32,X39,1,8.098946749
32,X40,1,7.643961949
33,X1,1,9.836866865
33,X2,0,8.677439541
33,X3,1,9.159152335
33,X4,0,8.612503371
33,X5,0,8.581856705
33,X6,0,8.573384471
33,X7,1,8.26513563
33,X8,0,7.973844376
33,X9,0,8.605936401
33,X10,1,9.159468042
33,X11,1,7.928766322
33,X12,1,8.029432841
33,X13,0,8.576781983
33,X14,1,8.359837381
33,X15,0,8.374476889
33,X16,1,7.993957548
33,X17,0,8.437067147
33,X18,1,8.523970176
33,X19,1,8.210124405
33,X20,0,8.085486772
33,X21,0,8.432070938
33,X22,1,8.470520783
33,X23,0,8.645586406
33,X24,1,8.194781638
33,X25,0,8.517992872
33,X26,1,8.486321528
33,X27,1,8.157657015
33,X28,0,8.377471248
33,X29,1,7.959974528
33,X30,0,8.255308812
33,X31,1,8.574140472
33,X32,0,8.770439087
33,X33,0,8.324336333
33,X34,1,8.690978417
33,X35,0,7.914617709
33,X36,1,8.293549515
33,X37,0,8.714567551
33,X38,1,8.287025025
33,X39,0,8.929302842
33,X40,0,8.303504799
34,X1,0,8.727940222
34,X2,0,8.944680684
34,X3,0,7.89469085
34,X4,1,7.846589975
34,X5,0,7.693937326
34,X6,0,7.851271997
34,X7,1,8.014335737
34,X8,1,7.911690521
34,X9,0,7.731492029
34,X10,1,7.528869257
34,X11,1,7.13169851
34,X12,0,7.660585462
34,X13,1,8.324578845
34,X14,1,8.435766193
34,X15,1,8.223358899
34,X16,1,8.122074375
34,X17,1,7.642524134
34,X18,0,8.594339401
34,X19,0,7.928045601
34,X20,1,7.859799181
34,X21,0,7.927685046
34,X22,0,8.056743775
34,X23,0,8.406708458
34,X24,1,7.950502435
34,X25,0,8.269756948
34,X26,0,8.376781038
34,X27,1,7.882692206
34,X28,0,8.685584843
34,X29,1,7.8559322
34,X30,0,7.800982071
34,X31,0,7.899895323
34,X32,1,7.902117546
34,X33,0,7.877397186
34,X34,1,7.122059882
34,X35,0,8.126518169
34,X36,0,7.958227192
34,X37,0,7.605392365
34,X38,1,8.256088134
34,X39,0,8.364275085
34,X40,1,7.513709248
35,X1,1,10.41885286
35,X2,1,9.063694792
35,X3,0,8.29729437
35,X4,0,8.584664907
35,X5,1,8.209852481
35,X6,1,9.152499372
35,X7,0,8.501267041
35,X8,1,8.915163618
35,X9,0,8.669227347
35,X10,1,8.137688185
35,X11,1,8.429890863
35,X12,1,9.363490551
35,X13,1,8.464214267
35,X14,0,9.103756887
35,X15,0,9.472473841
35,X16,0,8.980801414
35,X17,1,8.782169426
35,X18,1,8.716371865
35,X19,0,9.347315827
35,X20,0,8.801619971
35,X21,1,9.251674235
35,X22,1,8.946895524
35,X23,0,8.583355394
35,X24,0,8.406708458
35,X25,0,8.433159196
35,X26,1,8.858084222
35,X27,1,8.659733878
35,X28,1,7.955775782
35,X29,0,8.087640288
35,X30,0,8.86939816
35,X31,0,7.693025748
35,X32,0,7.880804345
35,X33,0,8.172164452
35,X34,0,8.777092883
35,X35,1,7.991592282
35,X36,0,7.513163545
35,X37,0,8.392536587
35,X38,1,9.18962733
35,X39,0,7.941651253
35,X40,1,8.458928283
36,X1,1,8.449770515
36,X2,1,8.696008609
36,X3,1,8.542665987
36,X4,0,7.982416347
36,X5,1,8.673683988
36,X6,1,7.880804345
36,X7,0,8.237743804
36,X8,1,8.357024439
36,X9,0,8.096512918
36,X10,0,8.321421587
36,X11,1,8.611957768
36,X12,1,7.983098941
36,X13,1,9.584039577
36,X14,0,8.593598523
36,X15,0,8.16905315
36,X16,0,8.693999568
36,X17,0,7.746300662
36,X18,1,8.258681496
36,X19,1,8.536603585
36,X20,1,8.268475389
36,X21,1,7.941295571
36,X22,1,7.710653324
36,X23,0,7.482681828
36,X24,1,8.048788284
36,X25,0,7.816416984
36,X26,1,8.915566546
36,X27,0,8.159660737
36,X28,1,8.510369966
36,X29,1,8.432941639
36,X30,0,7.455876687
36,X31,1,7.520776415
36,X32,1,8.831857935
36,X33,0,7.546974118
36,X34,0,7.893572074
36,X35,0,8.259458195
36,X36,0,7.357556201
36,X37,0,8.712759975
36,X38,1,7.746732908
36,X39,0,7.816416984
36,X40,1,7.582229194
37,X1,1,9.467305472
37,X2,1,8.405143688
37,X3,1,8.949494953
37,X4,1,8.997270906
37,X5,1,8.294799359
37,X6,0,7.79399909
37,X7,1,8.928772901
37,X8,1,8.271292653
37,X9,1,8.078998259
37,X10,0,8.069342367
37,X11,1,8.567506005
37,X12,1,8.204398418
37,X13,0,8.690474004
37,X14,0,8.069342367
37,X15,1,8.333751007
37,X16,0,8.357728417
37,X17,0,8.948455992
37,X18,1,7.960672608
37,X19,1,8.444407422
37,X20,0,8.274357007
37,X21,0,8.25997566
37,X22,1,8.598957493
37,X23,0,8.157657015
37,X24,0,7.8671055
37,X25,0,7.932362154
37,X26,1,8.233768709
37,X27,1,8.148734809
37,X28,1,7.957877358
37,X29,1,7.842278779
37,X30,1,9.140668699
37,X31,1,8.509765676
37,X32,0,7.932362154
37,X33,0,8.496582238
37,X34,1,7.79399909
37,X35,0,8.15536212
37,X36,1,8.380915173
37,X37,0,7.832807517
37,X38,1,7.854769183
37,X39,0,8.294549515
37,X40,1,8.751790893
38,X1,0,8.812992232
38,X2,1,8.629271095
38,X3,0,9.081142434
38,X4,0,8.672657294
38,X5,0,8.592300664
38,X6,0,8.943244933
38,X7,1,8.309676896
38,X8,0,5.746203191
38,X9,1,8.578100126
38,X10,1,8.058960018
38,X11,1,8.508152447
38,X12,1,7.443078374
38,X13,1,8.889859588
38,X14,0,8.243019469
38,X15,1,8.58541243
38,X16,1,7.933079772
38,X17,1,8.673855001
38,X18,1,8.396380571
38,X19,0,8.775085935
38,X20,0,8.87626526
38,X21,1,8.112527763
38,X22,0,8.030409562
38,X23,1,8.78186249
38,X24,0,8.799058379
38,X25,0,9.159993998
38,X26,0,8.145549632
38,X27,1,9.496871783
38,X28,0,7.623153068
38,X29,0,8.908288886
38,X30,0,8.586905804
38,X31,0,8.114623886
38,X32,1,8.447628728
38,X33,0,8.26436333
38,X34,0,8.307952545
38,X35,1,8.056743775
38,X36,1,8.010359589
38,X37,1,8.56674497
38,X38,1,7.228388452
38,X39,0,7.804251384
38,X40,0,8.377471248
39,X1,1,9.056256357
39,X2,0,9.284426915
39,X3,1,9.419466132
39,X4,0,8.367067733
39,X5,0,8.25997566
39,X6,0,8.687610844
39,X7,0,8.71604405
39,X8,0,8.425077903
39,X9,0,8.135932772
39,X10,0,8.838696812
39,X11,1,8.846496939
39,X12,0,8.752265314
39,X13,0,8.332308352
39,X14,1,8.350902452
39,X15,1,8.502485563
39,X16,0,8.585972707
39,X17,1,8.704668113
39,X18,0,8.605936401
39,X19,0,8.337587942
39,X20,0,8.397282895
39,X21,1,8.204398418
39,X22,1,8.486733984
39,X23,1,8.033982735
39,X24,0,8.279443488
39,X25,1,7.866338923
39,X26,1,8.900276349
39,X27,0,8.639410824
39,X28,0,8.187021067
39,X29,0,7.984121959
39,X30,1,8.741615924
39,X31,1,8.282230063
39,X32,0,8.366602833
39,X33,0,8.313607139
39,X34,0,8.081165778
39,X35,0,7.948031991
39,X36,0,8.794370279
39,X37,1,8.337348564
39,X38,0,8.556798446
39,X39,0,7.621684999
39,X40,1,7.617267814
40,X1,0,8.911664758
40,X2,1,8.288534459
40,X3,1,8.195609567
40,X4,1,8.23270601
40,X5,0,8.395703294
40,X6,1,7.467371067
40,X7,0,8.189244526
40,X8,1,8.015987811
40,X9,0,8.465478756
40,X10,0,7.716906135
40,X11,1,7.82084088
40,X12,0,8.028455164
40,X13,0,7.740664402
40,X14,0,8.418697945
40,X15,0,8.073714641
40,X16,0,8.542860938
40,X17,0,8.379997952
40,X18,1,8.205218426
40,X19,1,7.808729307
40,X20,0,7.814803429
40,X21,0,8.6044712
40,X22,1,8.263074836
40,X23,0,7.896552702
40,X24,0,7.792348924
40,X25,1,8.215276959
40,X26,0,8.219864742
40,X27,1,8.042378005
40,X28,1,7.866338923
40,X29,0,8.323122888
40,X30,0,8.154500175
40,X31,0,8.463792415
40,X32,1,8.174421153
40,X33,0,8.278936002
40,X34,0,7.90617884
40,X35,1,8.345217927
40,X36,1,8.775394959
40,X37,0,8.121480375
40,X38,1,8.653121709
40,X39,0,8.317033476
40,X40,1,8.491259809
41,X1,1,8.551787836
41,X2,0,8.458292083
41,X3,1,8.347590407
41,X4,0,9.183585635
41,X5,1,8.557567086
41,X6,0,9.17812705
41,X7,1,8.570733958
41,X8,1,8.405143688
41,X9,1,8.172729105
41,X10,0,8.516192691
41,X11,1,8.427487278
41,X12,1,8.794521852
41,X13,0,8.831857935
41,X14,1,8.676075516
41,X15,0,7.903226809
41,X16,1,8.002359546
41,X17,0,8.624791202
41,X18,1,8.11342664
41,X19,0,8.393894975
41,X20,0,8.486733984
41,X21,0,8.203030242
41,X22,0,8.781555459
41,X23,0,8.285008895
41,X24,1,8.400209836
41,X25,1,8.72923535
41,X26,1,7.837554361
41,X27,1,9.150590368
41,X28,1,8.206037763
41,X29,1,8.503297086
41,X30,0,8.611411867
41,X31,1,8.372398607
41,X32,0,7.895436007
41,X33,1,8.767329148
41,X34,1,9.130430989
41,X35,1,8.856091055
41,X36,1,8.63887971
41,X37,0,8.166216269
41,X38,1,7.998335396
41,X39,0,8.23270601
41,X40,0,8.336630088
42,X1,0,8.350429974
42,X2,1,7.709308333
42,X3,0,8.174139343
42,X4,1,7.6989362
42,X5,1,7.895808377
42,X6,0,7.909489493
42,X7,0,8.538171598
42,X8,1,7.960672608
42,X9,0,8.439880088
42,X10,0,8.599694413
42,X11,1,7.792348924
42,X12,0,7.828038032
42,X13,0,8.420462002
42,X14,1,7.830425618
42,X15,0,7.722234745
42,X16,1,8.465478756
42,X17,1,8.101677747
42,X18,1,7.855544678
42,X19,0,7.951207156
42,X20,1,7.835579247
42,X21,0,9.718181547
42,X22,1,8.144388866
42,X23,1,7.827240902
42,X24,0,7.830028083
42,X25,1,8.329899293
42,X26,1,8.363342467
42,X27,1,8.305484018
42,X28,1,7.355641103
42,X29,0,8.174139343
42,X30,1,8.121480375
42,X31,0,7.676937146
42,X32,0,7.616283562
42,X33,1,7.54538975
42,X34,0,7.5750717
42,X35,1,7.44132039
42,X36,1,8.472195825
42,X37,0,9.729907676
42,X38,0,7.897668151
42,X39,0,8.827614751
42,X40,1,9.337149219
43,X1,0,8.760453046
43,X2,0,7.956827122
43,X3,0,7.521859252
43,X4,0,8.064636476
43,X5,0,7.091742115
43,X6,1,7.209340257
43,X7,0,7.783640596
43,X8,1,7.063048163
43,X9,0,6.90475077
43,X10,1,6.995766156
43,X11,1,6.897704943
43,X12,0,8.116715625
43,X13,1,7.068172
43,X14,1,8.976388622
43,X15,0,6.960347729
43,X16,0,6.823286122
43,X17,1,6.91968385
43,X18,1,6.744059186
43,X19,1,6.82437367
43,X20,1,6.897704943
43,X21,0,6.610696045
43,X22,0,6.717804695
43,X23,1,6.966967139
43,X24,1,6.777646594
43,X25,0,7.057897937
43,X26,1,6.857514063
43,X27,0,6.761572769
43,X28,0,7.020190708
43,X29,1,6.639875834
43,X30,0,6.582025139
43,X31,1,6.82437367
43,X32,1,6.884486652
43,X33,0,6.621405652
43,X34,1,6.621405652
43,X35,1,6.892641641
43,X36,0,6.620073207
43,X37,1,6.878326468
43,X38,1,6.735780014
43,X39,0,6.91968385
43,X40,0,6.825460036
44,X1,1,8.675904883
44,X2,1,8.295548516
44,X3,0,8.350193651
44,X4,1,8.255828427
44,X5,0,9.120743838
44,X6,0,8.161375023
44,X7,1,8.44634145
44,X8,1,8.229244417
44,X9,0,8.603187385
44,X10,1,8.454253392
44,X11,1,8.463370385
44,X12,1,8.851233903
44,X13,0,8.896451207
44,X14,0,8.166216269
44,X15,1,8.992184362
44,X16,0,8.197814032
44,X17,1,8.030734924
44,X18,1,8.22389538
44,X19,1,8.74878099
44,X20,0,8.422442855
44,X21,1,8.161945799
44,X22,1,8.037220031
44,X23,1,8.738414897
44,X24,1,8.42463921
44,X25,0,8.669055541
44,X26,0,7.892825526
44,X27,0,8.406931797
44,X28,1,8.79769958
44,X29,1,8.059592329
44,X30,1,8.734077193
44,X31,1,8.110427238
44,X32,0,7.943427768
44,X33,1,8.389814262
44,X34,1,8.299285907
44,X35,1,8.144679183
44,X36,0,8.14612951
44,X37,0,7.998335396
44,X38,1,7.946263644
44,X39,0,8.547916364
44,X40,1,8.296297113
45,X1,0,9.499421465
45,X2,0,8.457443187
45,X3,0,8.51559191
45,X4,1,8.549853974
45,X5,0,8.389587067
45,X6,1,8.940236232
45,X7,0,8.560827228
45,X8,1,9.122164681
45,X9,1,8.134760782
45,X10,0,9.741027445
45,X11,1,8.574895902
45,X12,0,7.780720886
45,X13,0,8.06652149
45,X14,0,8.288283045
45,X15,1,8.638171118
45,X16,0,7.826443135
45,X17,1,8.550434525
45,X18,1,8.415603336
45,X19,1,8.207946941
45,X20,1,7.920809679
45,X21,0,9.966086694
45,X22,1,8.712595488
45,X23,0,7.840706452
45,X24,1,8.227642708
45,X25,1,8.354909528
45,X26,1,9.181014543
45,X27,1,8.224163513
45,X28,1,9.408125089
45,X29,0,7.361375429
45,X30,1,8.22684089
45,X31,0,8.476996002
45,X32,0,9.110741007
45,X33,0,9.341544058
45,X34,0,7.919719761
45,X35,1,8.587651655
45,X36,1,8.609225277
45,X37,0,9.341631758
45,X38,1,9.618402106
45,X39,0,7.816819966
45,X40,1,7.411556288
46,X1,0,8.468002947
46,X2,0,8.46231453
46,X3,0,8.023224685
46,X4,0,8.116118432
46,X5,0,7.605392365
46,X6,1,8.10832229
46,X7,0,8.153349758
46,X8,1,7.528331767
46,X9,0,7.850882665
46,X10,1,8.019941688
46,X11,1,8.032035314
46,X12,0,7.762596049
46,X13,1,7.791935957
46,X14,0,7.50714108
46,X15,1,7.748028524
46,X16,1,7.608870629
46,X17,0,8.346879254
46,X18,1,7.89469085
46,X19,1,7.305188215
46,X20,0,8.198914445
46,X21,0,7.668093709
46,X22,0,7.837948916
46,X23,1,8.390722527
46,X24,1,7.221105098
46,X25,0,7.573017256
46,X26,1,7.908019445
46,X27,0,7.652070746
46,X28,1,7.081708586
46,X29,0,7.562681247
46,X30,1,7.779466967
46,X31,0,7.772752716
46,X32,1,7.533158807
46,X33,1,7.832807517
46,X34,0,6.998509642
46,X35,1,7.383368147
46,X36,0,8.256866849
46,X37,0,8.067462667
46,X38,0,8.018954683
46,X39,1,7.512071246
46,X40,1,8.02125618
47,X1,0,8.270525095
47,X2,1,8.003028666
47,X3,1,7.993282328
47,X4,0,7.960672608
47,X5,1,7.694848072
47,X6,1,7.833203949
47,X7,0,8.062117583
47,X8,0,7.351158226
47,X9,1,8.806723555
47,X10,1,7.443663683
47,X11,0,7.242797923
47,X12,1,7.305860033
47,X13,1,7.420578905
47,X14,0,7.632401127
47,X15,0,8.496173824
47,X16,1,7.941295571
47,X17,0,7.496652438
47,X18,0,7.423568444
47,X19,1,8.228443883
47,X20,1,7.86787149
47,X21,0,7.13009851
47,X22,0,8.961366061
47,X23,1,7.172424577
47,X24,0,7.070724107
47,X25,1,11.77735682
47,X26,0,8.533263372
47,X27,0,7.382124366
47,X28,0,7.097548851
47,X29,1,6.827629235
47,X30,0,6.759255271
47,X31,1,7.10824414
47,X32,0,6.643789733
47,X33,0,6.423246964
47,X34,1,6.568077911
47,X35,1,8.24170316
47,X36,1,6.93439721
47,X37,1,7.021976423
47,X38,0,6.786716951
47,X39,1,6.605297921
47,X40,1,8.24143969
48,X1,1,8.938662874
48,X2,0,8.532672762
48,X3,0,7.654917048
48,X4,0,7.501082124
48,X5,0,7.054449658
48,X6,1,8.317521996
48,X7,0,7.106606138
48,X8,1,8.370315996
48,X9,1,8.41294317
48,X10,0,8.391403185
48,X11,0,7.409741954
48,X12,0,7.221835825
48,X13,0,8.141772205
48,X14,0,9.054621797
48,X15,0,7.444833274
48,X16,0,7.816819966
48,X17,0,7.292337176
48,X18,1,8.351610751
48,X19,0,7.501634458
48,X20,1,7.483806688
48,X21,1,7.928045601
48,X22,1,7.037027615
48,X23,1,7.154615357
48,X24,1,6.71417053
48,X25,0,7.635303886
48,X26,1,7.934513464
48,X27,0,7.250635512
48,X28,0,7.83991936
48,X29,1,7.512071246
48,X30,1,7.332369206
48,X31,0,7.892452044
48,X32,1,7.444248649
48,X33,0,7.401841579
48,X34,0,8.020927719
48,X35,1,8.548304186
48,X36,1,7.375255778
48,X37,1,7.010311867
48,X38,1,8.332067707
48,X39,1,8.336390481
48,X40,1,11.55588916
49,X1,0,7.892825526
49,X2,0,8.000014094
49,X3,1,9.04192172
49,X4,1,7.840312983
49,X5,1,8.660600655
49,X6,1,7.907283609
49,X7,0,7.927685046
49,X8,0,7.643003636
49,X9,1,7.631431665
49,X10,0,7.865955414
49,X11,0,7.930925372
49,X12,0,7.922261058
49,X13,1,7.798523054
49,X14,0,7.919356191
49,X15,0,7.525100746
49,X16,1,7.731053144
49,X17,1,8.023879993
49,X18,1,8.822911626
49,X19,1,7.298445102
49,X20,1,6.967909202
49,X21,0,7.713784617
49,X22,1,8.573762543
49,X23,0,7.391415235
49,X24,1,8.047189562
49,X25,0,7.748460024
49,X26,0,8.239857411
49,X27,0,8.251924714
49,X28,1,8.313116703
49,X29,0,7.748460024
49,X30,1,8.0522965
49,X31,1,7.886832999
49,X32,0,7.910223707
49,X33,1,7.567345676
49,X34,1,7.938802248
49,X35,1,7.928045601
49,X36,1,7.972810784
49,X37,0,7.871311203
49,X38,1,7.795234929
49,X39,1,7.812378206
49,X40,0,7.759187439
50,X1,1,8.868131714
50,X2,1,7.87207398
50,X3,0,7.846980982
50,X4,0,7.955074273
50,X5,0,8.033009499
50,X6,0,8.139148679
50,X7,1,8.245909265
50,X8,1,9.748061059
50,X9,1,7.957877358
50,X10,0,8.123261319
50,X11,1,8.12474302
50,X12,0,8.876823763
50,X13,0,8.293549515
50,X14,1,7.708859601
50,X15,0,8.391176351
50,X16,1,9.437316569
50,X17,0,8.069968149
50,X18,0,9.355219633
50,X19,1,8.126813721
50,X20,0,11.14420686
50,X21,1,9.505916207
50,X22,1,7.92984643
50,X23,1,7.928766322
50,X24,0,9.112176123
50,X25,1,9.703083488
50,X26,0,9.793058659
50,X27,1,7.61529834
50,X28,0,7.767687277
50,X29,1,8.382518288
50,X30,0,10.17060971
50,X31,0,7.99530662
50,X32,0,8.135346949
50,X33,0,10.84014938
50,X34,1,9.198065341
50,X35,0,8.820108645
50,X36,1,8.113127104
50,X37,0,9.676524215
50,X38,0,7.738052298
50,X39,0,8.003028666
50,X40,1,9.096835671
51,X1,1,8.282230063
51,X2,1,7.902487437
51,X3,1,8.777863715
51,X4,1,8.034306936
51,X5,1,8.221478947
51,X6,1,7.876638461
51,X7,1,7.951559331
51,X8,0,8.088561805
51,X9,1,7.749753406
51,X10,1,9.262078567
51,X11,1,7.563719668
51,X12,0,8.104703468
51,X13,0,8.266678443
51,X14,1,8.707813551
51,X15,0,8.768574284
51,X16,1,8.015327309
51,X17,1,8.136810864
51,X18,0,8.120291314
51,X19,0,8.069029329
51,X20,0,8.6206519
51,X21,1,7.861727078
51,X22,1,7.951207156
51,X23,0,7.922985959
51,X24,1,8.279189777
51,X25,0,8.079618029
51,X26,0,8.14293601
51,X27,0,8.025843344
51,X28,1,7.394493107
51,X29,1,7.714231145
51,X30,0,7.949797216
51,X31,1,7.958227192
51,X32,0,8.049107721
51,X33,0,7.916078096
51,X34,0,8.135346949
51,X35,0,7.999342953
51,X36,0,7.652070746
51,X37,1,7.699842407
51,X38,0,8.285765421
51,X39,1,8.116118432
51,X40,1,7.562161631
52,X1,1,8.543055851
52,X2,0,7.102499356
52,X3,0,7.470224136
52,X4,0,7.349230825
52,X5,1,7.839525582
52,X6,1,7.605392365
52,X7,1,7.75319427
52,X8,0,7.344072851
52,X9,0,7.419979924
52,X10,0,7.424761762
52,X11,0,7.686621335
52,X12,1,8.265907334
52,X13,1,7.638679824
52,X14,1,7.483806688
52,X15,0,7.491645474
52,X16,1,7.338888134
52,X17,0,7.78113851
52,X18,1,7.642524134
52,X19,0,7.43543802
52,X20,0,7.227662499
52,X21,0,7.918992488
52,X22,1,7.717351272
52,X23,1,7.239214974
52,X24,0,7.661527081
52,X25,1,7.299797367
52,X26,1,7.43543802
52,X27,1,7.403061091
52,X28,0,7.115582126
52,X29,0,7.760893196
52,X30,0,7.574045005
52,X31,1,7.605392365
52,X32,0,7.333676396
52,X33,1,7.675546003
52,X34,1,8.134760782
52,X35,1,7.787796878
52,X36,1,7.796880343
52,X37,1,8.015327309
52,X38,0,8.091015042
52,X39,0,7.910957383
52,X40,0,7.902117546
53,X1,1,9.073030421
53,X2,0,7.713784617
53,X3,0,8.025516386
53,X4,0,8.212297138
53,X5,0,7.833600224
53,X6,1,8.377701213
53,X7,0,7.938445551
53,X8,1,8.22389538
53,X9,1,8.010027528
53,X10,1,8.921324077
53,X11,1,7.738488122
53,X12,0,8.106816039
53,X13,1,7.576609767
53,X14,0,7.661527081
53,X15,1,8.042378005
53,X16,1,7.579167967
53,X17,0,8.370084326
53,X18,0,7.515889085
53,X19,1,7.733245647
53,X20,0,9.001099726
53,X21,1,7.613818685
53,X22,0,8.246958033
53,X23,0,7.849323818
53,X24,0,8.501876487
53,X25,0,8.043984431
53,X26,0,5.981414211
53,X27,0,8.173575487
53,X28,1,8.140607043
53,X29,0,8.573951525
53,X30,0,7.707961532
53,X31,0,8.315811132
53,X32,0,8.176391597
53,X33,1,7.834392303
53,X34,0,8.177515824
53,X35,0,8.059592329
53,X36,1,7.799753318
53,X37,0,7.79893331
53,X38,0,8.328451067
53,X39,0,7.980707821
53,X40,0,8.049427057
54,X1,1,8.720786883
54,X2,1,8.374246182
54,X3,1,8.870943864
54,X4,0,8.143517406
54,X5,0,8.52337405
54,X6,0,9.272657678
54,X7,1,8.87276753
54,X8,0,8.041412909
54,X9,1,8.487764381
54,X10,0,9.39632189
54,X11,0,8.45616849
54,X12,0,8.335671315
54,X13,1,8.475120415
54,X14,1,8.352318548
54,X15,0,8.3423635
54,X16,0,8.294799359
54,X17,1,8.506738734
54,X18,0,8.38822281
54,X19,1,8.611411867
54,X20,0,8.195333667
54,X21,1,8.416488487
54,X22,1,9.306468399
54,X23,0,8.153349758
54,X24,1,8.308199063
54,X25,0,7.589841512
54,X26,1,8.828494129
54,X27,1,8.146709052
54,X28,1,8.409830673
54,X29,0,7.963460067
54,X30,0,7.799753318
54,X31,1,8.063377822
54,X32,0,9.14835858
54,X33,1,8.048149102
54,X34,1,9.851667804
54,X35,0,8.254008591
54,X36,1,7.833996342
54,X37,1,8.287276756
54,X38,1,8.047189562
54,X39,1,8.592300664
54,X40,1,7.644440762
55,X1,0,8.221478947
55,X2,0,7.51479976
55,X3,0,8.125335087
55,X4,1,8.101677747
55,X5,1,8.352790135
55,X6,1,7.585788822
55,X7,0,7.884199934
55,X8,1,8.317277766
55,X9,1,7.358830898
55,X10,1,7.667158255
55,X11,1,7.443078374
55,X12,0,7.104965448
55,X13,0,7.619724214
55,X14,1,7.562681247
55,X15,0,7.755338813
55,X16,1,7.44775128
55,X17,0,7.398174093
55,X18,0,6.839476438
55,X19,0,7.912423121
55,X20,1,8.167919363
55,X21,0,8.230310799
55,X22,1,8.362642432
55,X23,1,7.362010551
55,X24,0,7.990576882
55,X25,0,8.212568398
55,X26,0,8.008032847
55,X27,0,9.57129614
55,X28,1,7.126890809
55,X29,0,6.900730664
55,X30,1,7.387709239
55,X31,1,7.335633982
55,X32,1,9.169101624
55,X33,0,7.208600338
55,X34,1,6.96979067
55,X35,0,6.999422468
55,X36,1,9.793505262
55,X37,1,7.303170051
55,X38,1,7.585788822
55,X39,0,7.082548569
55,X40,1,7.275172319
56,X1,0,8.198639455
56,X2,1,7.716906135
56,X3,1,8.186185994
56,X4,1,7.976595409
56,X5,0,6.603943825
56,X6,0,6.673297968
56,X7,1,8.235360644
56,X8,1,8.286269453
56,X9,1,10.68184866
56,X10,1,8.188133415
56,X11,1,8.185350223
56,X12,1,7.636269603
56,X13,0,7.50659178
56,X14,1,7.192182059
56,X15,0,7.700747795
56,X16,0,7.760040681
56,X17,1,7.434257382
56,X18,0,8.067776196
56,X19,0,7.804659297
56,X20,0,7.31986493
56,X21,0,7.625595072
56,X22,0,8.43402895
56,X23,0,7.089243155
56,X24,0,6.983789965
56,X25,1,7.350516172
56,X26,0,6.999422468
56,X27,1,6.758094504
56,X28,1,6.608000625
56,X29,1,6.93439721
56,X30,1,7.985143931
56,X31,0,6.771935556
56,X32,0,7.98480339
56,X33,1,8.153637486
56,X34,1,6.981005741
56,X35,0,7.579167967
56,X36,0,7.204149292
56,X37,1,7.307872781
56,X38,1,7.570443252
56,X39,0,7.376508126
56,X40,0,7.584773078
57,X1,1,8.936035097
57,X2,0,8.633731008
57,X3,0,7.744136628
57,X4,1,8.406485069
57,X5,0,8.17159948
57,X6,1,8.962904128
57,X7,1,8.793915424
57,X8,0,8.418697945
57,X9,0,8.141772205
57,X10,0,8.654517382
57,X11,0,8.425516403
57,X12,1,8.100768243
57,X13,1,7.895063498
57,X14,0,8.483429561
57,X15,0,7.760467029
57,X16,1,8.459987718
57,X17,0,8.454040376
57,X18,1,8.01466637
57,X19,1,8.115520882
57,X20,1,8.216088099
57,X21,0,8.485083137
57,X22,1,7.787796878
57,X23,1,8.324093761
57,X24,0,8.08147504
57,X25,1,8.491259809
57,X26,1,7.985824666
57,X27,0,7.760893196
57,X28,1,8.043984431
57,X29,0,7.857867559
57,X30,0,8.545197388
57,X31,0,8.202756382
57,X32,1,8.053887084
57,X33,1,8.149023868
57,X34,1,8.380915173
57,X35,1,7.876638461
57,X36,1,7.90617884
57,X37,0,7.648263031
57,X38,0,7.658227526
57,X39,1,8.835792367
57,X40,0,8.104401308
58,X1,1,9.232493177
58,X2,1,8.884748726
58,X3,0,8.636219898
58,X4,1,8.734238184
58,X5,0,8.359369106
58,X6,0,8.396831835
58,X7,0,8.341171747
58,X8,0,8.692322278
58,X9,1,9.021598247
58,X10,0,8.360071436
58,X11,1,8.220133957
58,X12,1,8.439663989
58,X13,0,8.50916102
58,X14,1,8.582418976
58,X15,0,8.858795106
58,X16,1,8.171316875
58,X17,0,8.735042754
58,X18,1,7.993957548
58,X19,0,8.676587244
58,X20,1,8.234034208
58,X21,1,8.535622327
58,X22,1,8.275376375
58,X23,0,9.20663351
58,X24,1,9.297526734
58,X25,0,8.642944397
58,X26,1,8.98506956
58,X27,0,8.349720837
58,X28,0,8.257126286
58,X29,0,8.173857455
58,X30,1,7.370230642
58,X31,0,8.227642708
58,X32,0,8.587092319
58,X33,1,7.431891917
58,X34,0,8.714731714
58,X35,1,8.30028019
58,X36,1,8.603737793
58,X37,0,8.980423936
58,X38,1,8.835646923
58,X39,1,8.764053269
58,X40,0,8.378390789
59,X1,0,8.847216104
59,X2,1,8.360539381
59,X3,1,7.897296473
59,X4,0,8.71374633
59,X5,1,7.620705087
59,X6,1,8.01763716
59,X7,1,8.896724917
59,X8,1,7.906547232
59,X9,1,8.202208436
59,X10,1,8.265907334
59,X11,0,7.835974582
59,X12,1,8.045588281
59,X13,0,7.847371836
59,X14,1,8.656433259
59,X15,0,8.204398418
59,X16,0,8.4147174
59,X17,1,8.240385116
59,X18,1,7.605392365
59,X19,1,7.794823152
59,X20,0,7.715123604
59,X21,0,8.179760494
59,X22,1,7.496652438
59,X23,0,7.672292456
59,X24,1,8.038512021
59,X25,0,8.101071503
59,X26,1,8.70417056
59,X27,0,7.380255788
59,X28,0,7.852439085
59,X29,0,8.111928063
59,X30,1,7.963112059
59,X31,1,8.226573475
59,X32,1,8.278174291
59,X33,1,8.23483028
59,X34,0,7.802618063
59,X35,0,7.453561872
59,X36,0,7.751905333
59,X37,1,7.694848072
59,X38,1,7.841885929
59,X39,0,7.328437353
59,X40,0,7.319202459
60,X1,0,8.99838401
60,X2,0,8.994916944
60,X3,1,8.712595488
60,X4,0,8.482394686
60,X5,1,8.879193928
60,X6,0,8.924390132
60,X7,0,8.403352375
60,X8,0,8.468423027
60,X9,1,8.301273485
60,X10,0,9.333707786
60,X11,1,8.210668031
60,X12,0,9.049467146
60,X13,0,8.215276959
60,X14,0,8.475328987
60,X15,1,8.440096141
60,X16,1,8.254788926
60,X17,0,8.804325113
60,X18,1,8.549273085
60,X19,1,8.615045592
60,X20,1,8.258681496
60,X21,0,7.623641947
60,X22,0,8.574707098
60,X23,0,8.245909265
60,X24,1,7.404887576
60,X25,0,8.099857911
60,X26,1,8.037543185
60,X27,0,8.436200032
60,X28,1,8.988820502
60,X29,1,7.929486523
60,X30,0,8.110727583
60,X31,1,7.98752448
60,X32,0,7.547501683
60,X33,0,7.455298486
60,X34,1,8.079927771
60,X35,1,8.058960018
60,X36,1,8.465057437
60,X37,1,8.495765244
60,X38,1,7.841099765
60,X39,1,8.125039097
60,X40,1,7.964850887
61,X1,0,8.110126802
61,X2,0,8.069029329
61,X3,0,7.796880343
61,X4,0,8.454892165
61,X5,1,7.763871288
61,X6,0,8.052614819
61,X7,1,8.059276223
61,X8,1,7.754052639
61,X9,1,7.983098941
61,X10,1,7.548555979
61,X11,1,8.185071478
61,X12,1,7.806696373
61,X13,0,7.990915463
61,X14,1,8.350902452
61,X15,1,7.739794458
61,X16,0,8.549466752
61,X17,1,8.156797047
61,X18,1,7.656810091
61,X19,1,7.944137491
61,X20,0,7.329093736
61,X21,1,7.879291485
61,X22,0,7.647786045
61,X23,1,7.674617497
61,X24,1,8.01268093
61,X25,0,7.809947086
61,X26,0,7.374629015
61,X27,1,7.544861069
61,X28,0,7.584264818
61,X29,1,7.848543482
61,X30,1,8.043984431
61,X31,0,7.044905117
61,X32,1,7.300472814
61,X33,1,7.173191742
61,X34,1,7.974532844
61,X35,1,7.918264686
61,X36,1,7.231287004
61,X37,0,7.042286172
61,X38,0,7.812782819
61,X39,1,7.555381944
61,X40,0,7.958227192
62,X1,0,8.503297086
62,X2,0,8.245909265
62,X3,0,8.457867725
62,X4,0,7.961021466
62,X5,1,8.633196867
62,X6,0,8.212568398
62,X7,0,8.554874258
62,X8,1,8.079618029
62,X9,1,8.01763716
62,X10,1,8.528726427
62,X11,0,7.938088727
62,X12,0,7.978653729
62,X13,0,8.33302994
62,X14,0,8.612503371
62,X15,1,8.911529942
62,X16,1,8.308199063
62,X17,1,8.195609567
62,X18,1,8.03818918
62,X19,0,7.952615112
62,X20,0,8.143807977
62,X21,1,8.912877288
62,X22,0,8.062117583
62,X23,0,8.119696253
62,X24,1,7.289610521
62,X25,1,7.678788998
62,X26,0,7.421177529
62,X27,1,7.986844901
62,X28,0,8.368693183
62,X29,0,8.244859396
62,X30,1,8.201385955
62,X31,1,7.691656823
62,X32,1,7.974876901
62,X33,0,7.899524472
62,X34,0,8.161375023
62,X35,1,7.886457271
62,X36,0,8.245909265
62,X37,0,8.087332926
62,X38,0,8.476579509
62,X39,1,7.833600224
62,X40,1,7.766416898
63,X1,1,8.749573948
63,X2,0,8.163371316
63,X3,0,8.29504914
63,X4,1,8.192293731
63,X5,1,8.022568947
63,X6,0,8.411610429
63,X7,1,7.860956365
63,X8,1,8.265392931
63,X9,1,7.87245515
63,X10,0,8.42156296
63,X11,1,8.12474302
63,X12,0,8.188133415
63,X13,1,9.039789271
63,X14,1,8.267962305
63,X15,0,8.239329428
63,X16,0,8.103796713
63,X17,1,9.164505836
63,X18,0,8.263332667
63,X19,1,8.639941657
63,X20,0,7.9686657
63,X21,0,7.640603826
63,X22,0,7.614805365
63,X23,1,8.131824785
63,X24,1,7.40731771
63,X25,0,7.958227192
63,X26,0,8.479906607
63,X27,1,8.368229038
63,X28,1,8.255308812
63,X29,1,8.28273588
63,X30,0,8.565983356
63,X31,0,7.595889918
63,X32,1,8.516793111
63,X33,0,7.766840537
63,X34,1,7.707062655
63,X35,1,7.963460067
63,X36,0,7.731930722
63,X37,0,8.428580533
63,X38,1,8.013674143
63,X39,0,7.90617884
63,X40,1,7.400620577
64,X1,0,8.991437815
64,X2,0,8.389587067
64,X3,0,8.309922989
64,X4,0,8.15564927
64,X5,0,9.084890521
64,X6,0,8.814627555
64,X7,1,8.967249183
64,X8,0,9.25598273
64,X9,0,8.471986599
64,X10,0,8.588583188
64,X11,1,8.353497099
64,X12,0,10.08205206
64,X13,0,8.930890984
64,X14,1,8.108924156
64,X15,0,8.309430742
64,X16,0,8.778633953
64,X17,1,8.6206519
64,X18,1,8.186185994
64,X19,0,9.371182897
64,X20,1,8.079308192
64,X21,0,8.562357743
64,X22,0,8.585225602
64,X23,0,8.977020214
64,X24,0,8.031710375
64,X25,0,8.867990898
64,X26,0,8.255568653
64,X27,1,9.420601297
64,X28,0,8.2204031
64,X29,0,8.968268811
64,X30,1,8.812694613
64,X31,0,8.934323331
64,X32,0,8.809116258
64,X33,1,9.13905917
64,X34,1,8.986321438
64,X35,0,8.747193184
64,X36,0,8.610683535
64,X37,1,8.980046317
64,X38,0,8.46884293
64,X39,1,8.651024539
64,X40,0,8.630343289
65,X1,1,8.72955887
65,X2,1,8.671115274
65,X3,1,8.614864219
65,X4,0,8.266678443
65,X5,1,8.246958033
65,X6,1,8.716371865
65,X7,0,8.537583881
65,X8,0,8.55718284
65,X9,1,8.574895902
65,X10,1,8.462948177
65,X11,1,8.569406063
65,X12,0,9.246672301
65,X13,0,8.492285556
65,X14,1,7.868636894
65,X15,0,8.825265954
65,X16,0,8.395929104
65,X17,0,9.455871442
65,X18,0,8.561018671
65,X19,0,8.331345425
65,X20,0,9.567595148
65,X21,1,8.153637486
65,X22,0,8.79209393
65,X23,0,8.567506005
65,X24,0,8.578100126
65,X25,1,8.530306831
65,X26,1,9.044757931
65,X27,0,8.112527763
65,X28,1,9.165761329
65,X29,0,8.355614996
65,X30,1,8.191186005
65,X31,0,8.514790307
65,X32,0,8.574895902
65,X33,1,8.182559264
65,X34,1,8.442254105
65,X35,1,8.796036315
65,X36,1,8.447628728
65,X37,0,8.167351987
65,X38,1,8.534443545
65,X39,1,7.990238186
65,X40,0,8.223627176
66,X1,1,8.526945483
66,X2,0,8.986696696
66,X3,0,8.390722527
66,X4,1,8.165079259
66,X5,0,8.755579972
66,X6,1,8.162231065
66,X7,1,8.043663352
66,X8,1,7.648739789
66,X9,1,8.67795057
66,X10,0,8.261009786
66,X11,0,8.450625947
66,X12,1,7.897296473
66,X13,1,7.663407665
66,X14,1,8.093156698
66,X15,0,8.24117615
66,X16,1,8.088254727
66,X17,1,7.932362154
66,X18,0,8.914088349
66,X19,0,8.901638932
66,X20,1,7.703459048
66,X21,1,8.251663924
66,X22,0,8.206856428
66,X23,0,8.16905315
66,X24,1,5.673323267
66,X25,1,8.23853693
66,X26,1,8.232174236
66,X27,0,7.961370202
66,X28,1,7.897296473
66,X29,0,8.206310726
66,X30,1,8.003028666
66,X31,1,7.875879159
66,X32,0,8.311889558
66,X33,1,7.969703583
66,X34,0,8.188689124
66,X35,1,8.472614148
66,X36,1,7.97590836
66,X37,0,9.063694792
66,X38,1,8.141772205
66,X39,1,8.625868208
66,X40,0,8.091321274
67,X1,0,9.083415678
67,X2,1,8.258163362
67,X3,0,8.019941688
67,X4,1,8.257644958
67,X5,0,7.652070746
67,X6,1,7.320526962
67,X7,0,7.11395611
67,X8,1,6.895682698
67,X9,0,6.821107472
67,X10,0,7.020190708
67,X11,1,6.767343125
67,X12,0,8.101374671
67,X13,1,7.125283092
67,X14,1,7.35372233
67,X15,0,7.539558829
67,X16,1,8.269756948
67,X17,1,6.910750788
67,X18,1,6.993015123
67,X19,1,6.947937069
67,X20,1,6.844815479
67,X21,0,6.880384082
67,X22,0,6.785587645
67,X23,1,6.751101469
67,X24,1,6.769641977
67,X25,1,6.549650742
67,X26,0,7.047517221
67,X27,0,6.722629795
67,X28,0,6.768493212
67,X29,0,7.265429723
67,X30,1,6.769641977
67,X31,1,6.694562059
67,X32,1,6.878326468
67,X33,0,6.826545224
67,X34,1,6.803505258
67,X35,0,6.626717749
67,X36,0,6.59441346
67,X37,0,6.732210706
67,X38,1,6.517671273
67,X39,0,6.624065228
67,X40,0,6.796823718
68,X1,1,8.714403361
68,X2,1,8.433594168
68,X3,0,8.502485563
68,X4,0,8.672314828
68,X5,1,8.48941081
68,X6,1,8.720460513
68,X7,1,8.675051276
68,X8,1,8.664060267
68,X9,1,8.234034208
68,X10,0,7.792348924
68,X11,0,8.59674347
68,X12,1,9.713778777
68,X13,1,8.821289805
68,X14,1,8.295548516
68,X15,1,7.984462732
68,X16,0,8.871645668
68,X17,1,7.881182202
68,X18,1,8.390949465
68,X19,1,7.875119281
68,X20,0,7.831220215
68,X21,0,9.393411648
68,X22,1,8.196987927
68,X23,1,8.192847135
68,X24,0,8.057694195
68,X25,0,8.090095783
68,X26,1,8.613048677
68,X27,1,8.590815331
68,X28,1,8.027802848
68,X29,0,8.123557835
68,X30,1,8.484463367
68,X31,0,7.756195344
68,X32,1,8.830396801
68,X33,0,8.443761913
68,X34,1,8.408716715
68,X35,0,8.154212695
68,X36,0,8.531293316
68,X37,1,8.5465578
68,X38,0,7.981391582
68,X39,0,8.34877454
68,X40,1,7.925880317
69,X1,0,7.863651265
69,X2,0,8.246695944
69,X3,0,8.092851028
69,X4,0,8.216898581
69,X5,1,7.53369371
69,X6,1,8.334951631
69,X7,0,7.802618063
69,X8,1,7.731492029
69,X9,0,10.84643969
69,X10,0,7.658699558
69,X11,0,8.723068501
69,X12,0,8.359603271
69,X13,0,9.118992333
69,X14,0,8.464214267
69,X15,0,8.381831553
69,X16,1,8.087947555
69,X17,1,7.96241568
69,X18,1,8.279697134
69,X19,0,7.812378206
69,X20,1,8.738575192
69,X21,0,8.008698183
69,X22,1,8.909100135
69,X23,0,5.472270674
69,X24,1,5.659482216
69,X25,1,8.275631055
69,X26,0,8.227642708
69,X27,1,8.28172399
69,X28,0,8.59674347
69,X29,1,8.047829357
69,X30,0,8.471149253
69,X31,1,8.190631681
69,X32,0,8.156797047
69,X33,0,8.117014088
69,X34,0,8.147288259
69,X35,1,8.090402297
69,X36,0,8.219056661
69,X37,0,8.027150107
69,X38,0,7.727975542
69,X39,1,8.329175442
69,X40,0,8.186185994
70,X1,0,8.133000219
70,X2,1,7.707961532
70,X3,0,7.616283562
70,X4,0,7.383989458
70,X5,1,6.996681488
70,X6,1,7.154615357
70,X7,1,8.74687532
70,X8,0,8.492900499
70,X9,0,8.073714641
70,X10,1,7.311218384
70,X11,1,7.341483852
70,X12,1,7.494986234
70,X13,1,6.840546529
70,X14,1,7.075808864
70,X15,0,7.088408779
70,X16,1,7.160845907
70,X17,1,7.380255788
70,X18,1,7.239214974
70,X19,1,7.465082736
70,X20,0,7.840312983
70,X21,0,7.069874128
70,X22,0,7.631431665
70,X23,0,7.901007052
70,X24,1,7.645875825
70,X25,1,7.769800996
70,X26,0,7.687080156
70,X27,1,7.659642955
70,X28,1,7.233455419
70,X29,1,6.774223886
70,X30,0,7.652545693
70,X31,1,7.66293785
70,X32,1,8.555644378
70,X33,0,7.721791777
70,X34,0,6.895682698
70,X35,0,7.737616283
70,X36,0,7.697121317
70,X37,1,7.132497552
70,X38,1,5.537334267
70,X39,1,7.249925537
70,X40,1,6.826545224
71,X1,1,8.675392806
71,X2,0,8.591743923
71,X3,0,7.268223021
71,X4,1,6.461468176
71,X5,0,7.027314514
71,X6,1,6.461468176
71,X7,0,8.352318548
71,X8,1,6.996681488
71,X9,1,7.872836175
71,X10,1,6.625392368
71,X11,1,7.704361168
71,X12,1,7.189922171
71,X13,0,7.343426229
71,X14,0,7.813591553
71,X15,1,7.526717561
71,X16,0,7.910223707
71,X17,0,7.33823815
71,X18,1,7.878155337
71,X19,1,7.816013839
71,X20,0,6.932447892
71,X21,0,6.72982407
71,X22,1,7.56112159
71,X23,1,7.524021415
71,X24,0,7.969011781
71,X25,0,8.041734711
71,X26,0,8.612866941
71,X27,1,7.86787149
71,X28,0,7.356918242
71,X29,0,8.01268093
71,X30,1,6.883462586
71,X31,0,6.823286122
71,X32,1,7.680637428
71,X33,1,6.723832441
71,X34,1,7.270312886
71,X35,0,6.889591308
71,X36,0,8.619027497
71,X37,0,7.418180823
71,X38,1,9.474779406
71,X39,0,8.860357273
71,X40,0,6.905753276
72,X1,1,8.711772646
72,X2,0,8.647694999
72,X3,0,8.763740721
72,X4,1,7.965545573
72,X5,1,7.983098941
72,X6,1,8.131824785
72,X7,0,7.809541325
72,X8,0,8.340933226
72,X9,0,8.422003004
72,X10,1,8.135932772
72,X11,1,8.224431573
72,X12,1,7.771067086
72,X13,1,7.943072717
72,X14,0,8.289037098
72,X15,1,7.776954403
72,X16,0,8.089789176
72,X17,1,7.993282328
72,X18,0,7.761319181
72,X19,0,9.003808086
72,X20,1,8.653645315
72,X21,0,8.789203094
72,X22,0,7.831617276
72,X23,1,8.322394113
72,X24,1,8.043020885
72,X25,0,8.193400232
72,X26,1,8.231376046
72,X27,1,7.965198291
72,X28,1,7.959625305
72,X29,0,8.23110984
72,X30,1,8.08085642
72,X31,0,7.918628653
72,X32,0,7.430707083
72,X33,1,7.889084407
72,X34,0,8.275376375
72,X35,1,7.783224016
72,X36,0,8.286017468
72,X37,0,7.740229525
72,X38,0,8.341171747
72,X39,1,8.043020885
72,X40,1,7.988542983
73,X1,0,9.154298981
73,X2,0,8.245909265
73,X3,0,8.198089249
73,X4,0,8.776784384
73,X5,1,8.38935982
73,X6,0,7.964155719
73,X7,0,8.189799619
73,X8,1,8.178919333
73,X9,1,8.211211362
73,X10,1,7.886081402
73,X11,1,7.428927195
73,X12,0,7.616775809
73,X13,0,8.27614022
73,X14,0,8.08085642
73,X15,0,8.18339737
73,X16,0,8.026823576
73,X17,0,8.59137259
73,X18,1,7.525639975
73,X19,1,8.93115543
73,X20,0,7.765993079
73,X21,0,7.975220839
73,X22,1,7.883069351
73,X23,1,8.972210078
73,X24,1,7.955775782
73,X25,1,7.357556201
73,X26,0,8.463792415
73,X27,1,8.062432792
73,X28,0,8.192293731
73,X29,1,7.854381211
73,X30,0,8.454253392
73,X31,1,7.732369222
73,X32,1,8.340933226
73,X33,0,8.004365565
73,X34,1,7.89469085
73,X35,1,8.219326094
73,X36,0,7.704361168
73,X37,1,8.499640032
73,X38,1,6.979145275
73,X39,0,7.18690102
73,X40,1,7.513163545
74,X1,0,8.941414628
74,X2,0,8.256866849
74,X3,0,8.341410211
74,X4,1,8.357024439
74,X5,1,8.230843564
74,X6,1,8.388905171
74,X7,0,7.723562472
74,X8,1,8.860357273
74,X9,0,8.955190025
74,X10,0,8.947025656
74,X11,1,9.505692951
74,X12,1,8.085794701
74,X13,0,7.952263309
74,X14,1,8.047189562
74,X15,1,8.217708407
74,X16,1,7.903226809
74,X17,0,8.581669211
74,X18,1,9.394327208
74,X19,1,8.219864742
74,X20,0,8.054840221
74,X21,0,8.167068178
74,X22,1,9.638023489
74,X23,1,8.101980732
74,X24,1,7.769800996
74,X25,0,8.036249942
74,X26,0,8.193123722
74,X27,0,8.308199063
74,X28,1,9.549808118
74,X29,1,8.058643712
74,X30,1,7.36707706
74,X31,0,7.887208586
74,X32,0,7.64921632
74,X33,0,8.089175679
74,X34,1,8.327484416
74,X35,1,8.564839845
74,X36,0,7.239214974
74,X37,1,8.096512918
74,X38,0,8.873187904
74,X39,0,8.203304027
74,X40,0,8.460834458
75,X1,0,9.579971027
75,X2,1,8.977020214
75,X3,1,9.341017696
75,X4,1,9.062188331
75,X5,0,8.599326021
75,X6,0,8.682538124
75,X7,1,9.030016818
75,X8,1,8.583916823
75,X9,1,8.82438373
75,X10,0,8.345692873
75,X11,1,8.207674424
75,X12,1,8.469472455
75,X13,0,8.48487659
75,X14,1,8.153637486
75,X15,0,8.852235835
75,X16,1,8.910585718
75,X17,0,8.738414897
75,X18,1,8.748939632
75,X19,0,8.637639344
75,X20,1,8.340217321
75,X21,1,8.130353547
75,X22,1,8.402006782
75,X23,1,9.087720658
75,X24,1,8.787220329
75,X25,1,8.260751355
75,X26,1,8.245121966
75,X27,1,9.028818495
75,X28,1,8.682368589
75,X29,0,8.935377072
75,X30,1,8.216358332
75,X31,0,8.262816938
75,X32,0,8.382518288
75,X33,1,7.997663127
75,X34,0,9.3727993
75,X35,1,8.569785642
75,X36,0,8.091933456
75,X37,1,8.042699497
75,X38,1,8.348301055
75,X39,1,7.951559331
75,X40,1,9.212537956
76,X1,0,8.074337694
76,X2,1,8.604104563
76,X3,1,8.564839845
76,X4,1,8.026823576
76,X5,1,7.727094485
76,X6,1,7.845024417
76,X7,1,8.454253392
76,X8,0,8.317766167
76,X9,1,8.525558108
76,X10,0,8.807920622
76,X11,0,8.349011198
76,X12,0,8.112527763
76,X13,1,7.983440063
76,X14,1,7.952966791
76,X15,1,7.809135398
76,X16,0,8.236155662
76,X17,1,7.853993087
76,X18,1,7.748460024
76,X19,0,7.782390336
76,X20,1,9.405002141
76,X21,0,8.341410211
76,X22,0,8.454466362
76,X23,1,8.361708289
76,X24,0,7.661056382
76,X25,1,7.961021466
76,X26,1,8.560252681
76,X27,1,8.650499559
76,X28,1,8.499640032
76,X29,1,8.192293731
76,X30,0,7.68386398
76,X31,1,8.272059622
76,X32,0,8.169336396
76,X33,0,8.008032847
76,X34,1,7.940939762
76,X35,0,8.595449689
76,X36,1,8.67419694
76,X37,0,7.835579247
76,X38,0,7.661056382
76,X39,1,8.798756583
76,X40,0,8.666130304
77,X1,1,9.644198555
77,X2,1,8.39208338
77,X3,1,8.568836425
77,X4,1,8.174139343
77,X5,1,8.314587291
77,X6,1,8.496786382
77,X7,1,8.420241665
77,X8,0,7.896180609
77,X9,1,9.636065519
77,X10,0,8.145839613
77,X11,0,10.02295805
77,X12,0,8.253488028
77,X13,0,7.502186487
77,X14,1,8.222553638
77,X15,0,8.458716262
77,X16,1,9.091331585
77,X17,0,7.960672608
77,X18,1,8.61323038
77,X19,1,8.43923165
77,X20,0,8.092545264
77,X21,0,8.362875831
77,X22,0,8.22389538
77,X23,1,8.452761331
77,X24,1,7.496097345
77,X25,0,8.251142139
77,X26,0,8.087025471
77,X27,1,10.23289921
77,X28,0,8.875007486
77,X29,1,12.16398944
77,X30,1,7.918628653
77,X31,0,8.082711134
77,X32,1,7.351158226
77,X33,1,8.126222529
77,X34,1,7.871692664
77,X35,1,8.01763716
77,X36,0,8.407824654
77,X37,0,9.146867949
77,X38,0,8.060540047
77,X39,0,8.356085031
77,X40,0,9.613603057
78,X1,0,8.079927771
78,X2,0,8.027476531
78,X3,0,7.832807517
78,X4,1,7.955775782
78,X5,1,7.019296654
78,X6,1,7.270312886
78,X7,0,7.911690521
78,X8,1,7.336936914
78,X9,1,7.604894481
78,X10,1,7.682021511
78,X11,0,8.072779333
78,X12,0,7.215239979
78,X13,1,8.815815204
78,X14,1,7.616283562
78,X15,0,6.918695219
78,X16,0,6.89060912
78,X17,0,9.194109359
78,X18,1,7.596392304
78,X19,0,8.236950048
78,X20,0,7.303170051
78,X21,0,8.269756948
78,X22,1,7.782807263
78,X23,0,7.102499356
78,X24,0,7.257707677
78,X25,0,7.329749689
78,X26,1,7.428333194
78,X27,1,6.91274282
78,X28,1,7.279318835
78,X29,1,6.835184586
78,X30,1,7.043159916
78,X31,1,6.978213743
78,X32,1,7.241366283
78,X33,1,7.300472814
78,X34,1,6.704414355
78,X35,1,7.486052618
78,X36,1,7.895063498
78,X37,0,7.257002707
78,X38,0,7.03438793
78,X39,0,7.523481313
78,X40,1,7.273786318
79,X1,0,10.26656694
79,X2,0,9.795401103
79,X3,0,9.793616881
79,X4,0,9.562685958
79,X5,1,9.577688158
79,X6,0,9.445807673
79,X7,0,9.595330627
79,X8,0,9.433723894
79,X9,0,9.669283054
79,X10,0,9.868844347
79,X11,0,9.647756241
79,X12,0,9.398561161
79,X13,1,9.606091788
79,X14,0,9.662180031
79,X15,0,9.456575255
79,X16,0,9.620527646
79,X17,1,9.46831038
79,X18,0,9.135616826
79,X19,0,9.077837022
79,X20,0,9.643615181
79,X21,0,9.541584681
79,X22,0,9.568224584
79,X23,0,8.447414297
79,X24,0,9.520688615
79,X25,0,9.494541393
79,X26,1,9.200593021
79,X27,0,8.643120748
79,X28,0,8.742414583
79,X29,0,9.378478484
79,X30,1,8.464425126
79,X31,0,8.227642708
79,X32,1,9.737137765
79,X33,0,9.083302139
79,X34,1,8.786151055
79,X35,1,8.737292113
79,X36,1,8.51398806
79,X37,0,9.368966735
79,X38,0,8.939974177
79,X39,1,9.339173244
79,X40,0,9.100413893
80,X1,0,9.00146948
80,X2,0,8.498418036
80,X3,1,8.730043953
80,X4,1,8.332308352
80,X5,0,8.25244609
80,X6,0,9.170871628
80,X7,1,8.682538124
80,X8,1,8.083637203
80,X9,0,8.438149984
80,X10,1,8.04494705
80,X11,0,8.047189562
80,X12,0,8.269244521
80,X13,1,8.215006433
80,X14,0,7.506042179
80,X15,1,8.592857095
80,X16,1,9.237760968
80,X17,0,8.340456013
80,X18,1,7.648739789
80,X19,1,8.478868077
80,X20,1,8.141189793
80,X21,1,8.549853974
80,X22,1,8.607947555
80,X23,0,8.079927771
80,X24,1,8.350666241
80,X25,0,8.340217321
80,X26,1,8.43771699
80,X27,1,8.047509511
80,X28,1,7.749322465
80,X29,0,9.054855469
80,X30,0,8.127995056
80,X31,1,8.015327309
80,X32,1,8.723068501
80,X33,1,8.327242607
80,X34,0,8.083945702
80,X35,1,9.608512283
80,X36,0,7.9490915
80,X37,0,8.01763716
80,X38,0,8.753687227
80,X39,1,8.181160858
80,X40,1,8.122371243
81,X1,0,8.914760527
81,X2,1,8.267962305
81,X3,0,8.826441042
81,X4,0,9.086476385
81,X5,0,8.744169389
81,X6,1,8.606302366
81,X7,1,8.277920258
81,X8,0,8.418697945
81,X9,1,8.62137301
81,X10,0,8.899730795
81,X11,1,8.119696253
81,X12,0,9.404013917
81,X13,0,8.264620829
81,X14,0,8.274357007
81,X15,0,8.224163513
81,X16,0,8.608677882
81,X17,0,8.752423404
81,X18,1,8.757626411
81,X19,1,8.308938253
81,X20,0,7.68294317
81,X21,1,8.312871394
81,X22,1,8.144388866
81,X23,0,8.562357743
81,X24,0,9.043813421
81,X25,0,8.196161139
81,X26,0,7.646831391
81,X27,1,8.537191878
81,X28,1,8.570165076
81,X29,0,8.420462002
81,X30,1,8.057694195
81,X31,1,8.14815644
81,X32,1,8.353732642
81,X33,0,8.406261631
81,X34,1,8.672999643
81,X35,0,9.126523886
81,X36,1,8.533460164
81,X37,0,9.13583232
81,X38,1,8.458716262
81,X39,0,7.61529834
81,X40,1,8.9185164
82,X1,1,10.38656164
82,X2,1,8.881697406
82,X3,0,8.048468744
82,X4,1,8.4147174
82,X5,1,7.82284529
82,X6,0,8.357962966
82,X7,0,8.178638789
82,X8,1,7.809135398
82,X9,0,8.314097335
82,X10,0,7.724888439
82,X11,1,7.843064017
82,X12,1,8.116118432
82,X13,0,9.266815219
82,X14,0,8.110427238
82,X15,1,7.102499356
82,X16,0,10.02848892
82,X17,0,8.429235913
82,X18,1,7.999007213
82,X19,0,9.059052258
82,X20,1,7.074116816
82,X21,0,8.407601515
82,X22,0,8.206583614
82,X23,1,7.881182202
82,X24,1,7.40671073
82,X25,0,7.374629015
82,X26,1,7.92984643
82,X27,1,7.207118856
82,X28,0,6.98471632
82,X29,1,8.064007347
82,X30,1,7.323830566
82,X31,0,8.684739463
82,X32,0,7.912056888
82,X33,1,7.241366283
82,X34,1,7.474204806
82,X35,1,7.166265974
82,X36,0,7.406103381
82,X37,0,7.128495946
82,X38,0,7.724888439
82,X39,0,7.687538766
82,X40,0,7.82284529
83,X1,0,9.194515822
83,X2,0,8.193953024
83,X3,1,8.665268309
83,X4,0,8.232440158
83,X5,1,8.332789468
83,X6,0,8.832149906
83,X7,0,8.965334574
83,X8,0,8.662677858
83,X9,0,8.61974978
83,X10,0,8.087332926
83,X11,0,8.174984533
83,X12,1,8.583729715
83,X13,1,8.250620082
83,X14,1,5.549076085
83,X15,0,7.993957548
83,X16,1,8.256866849
83,X17,1,8.19007705
83,X18,1,9.026297334
83,X19,0,8.062747901
83,X20,1,7.900636613
83,X21,0,8.496786382
83,X22,1,8.265392931
83,X23,1,8.094683649
83,X24,1,7.774015077
83,X25,1,7.926963545
83,X26,0,8.484049973
83,X27,0,7.883446354
83,X28,1,7.886457271
83,X29,0,7.474204806
83,X30,0,7.751475318
83,X31,1,8.479491324
83,X32,0,8.622633704
83,X33,1,8.351610751
83,X34,0,8.521782644
83,X35,1,5.575949103
83,X36,0,7.983098941
83,X37,0,8.385944905
83,X38,1,7.83873756
83,X39,1,5.446737372
83,X40,0,7.997326823
84,X1,1,8.927446816
84,X2,0,8.375399186
84,X3,1,7.573017256
84,X4,1,8.173293439
84,X5,0,7.963460067
84,X6,1,8.154787573
84,X7,1,7.701652363
84,X8,0,7.869401713
84,X9,0,8.545391846
84,X10,1,8.080237416
84,X11,0,8.047509511
84,X12,0,7.625107148
84,X13,1,9.196748418
84,X14,0,8.600982717
84,X15,0,7.713337889
84,X16,1,8.289288323
84,X17,0,7.570443252
84,X18,0,8.78813594
84,X19,1,7.341483852
84,X20,1,8.110427238
84,X21,0,8.005367067
84,X22,1,7.762596049
84,X23,1,8.139148679
84,X24,1,7.90359629
84,X25,0,7.905810313
84,X26,0,7.734121303
84,X27,0,7.573017256
84,X28,0,7.782807263
84,X29,0,7.621684999
84,X30,0,8.916237732
84,X31,1,7.880426344
84,X32,1,7.252762418
84,X33,0,8.371936179
84,X34,1,7.428927195
84,X35,1,8.154212695
84,X36,0,9.042158379
84,X37,0,7.649692624
84,X38,1,7.777792626
84,X39,1,7.994969523
84,X40,1,8.224431573
85,X1,1,8.693161274
85,X2,0,8.067462667
85,X3,0,7.499423291
85,X4,1,8.539541595
85,X5,1,7.61332498
85,X6,0,8.064321961
85,X7,1,7.96241568
85,X8,1,8.041412909
85,X9,1,7.426549072
85,X10,1,8.781094735
85,X11,0,8.007700013
85,X12,1,8.061486867
85,X13,1,7.805474625
85,X14,0,8.235890726
85,X15,1,7.995643604
85,X16,0,8.24196656
85,X17,0,7.6989362
85,X18,0,8.601718146
85,X19,0,8.079618029
85,X20,0,8.517793011
85,X21,0,8.307705967
85,X22,0,7.560080465
85,X23,0,7.770223204
85,X24,0,7.987864096
85,X25,1,7.637716433
85,X26,1,7.713337889
85,X27,0,8.622093601
85,X28,1,8.286269453
85,X29,0,7.276556403
85,X30,0,7.54538975
85,X31,0,7.44716836
85,X32,1,7.889459149
85,X33,1,7.798112629
85,X34,1,8.031710375
85,X35,0,7.971085754
85,X36,0,8.001019961
85,X37,0,7.796057974
85,X38,1,7.86787149
85,X39,1,7.760467029
85,X40,0,7.98104976
86,X1,0,11.06124887
86,X2,0,8.237743804
86,X3,1,7.525639975
86,X4,1,7.473069088
86,X5,1,7.5416831
86,X6,0,7.709756864
86,X7,1,7.744136628
86,X8,0,7.830425618
86,X9,0,8.019283793
86,X10,1,10.55121887
86,X11,0,8.878079256
86,X12,0,7.340186835
86,X13,0,7.122866659
86,X14,0,7.832410927
86,X15,0,8.031385331
86,X16,0,7.351799869
86,X17,1,8.164510269
86,X18,1,7.512071246
86,X19,0,8.105609402
86,X20,0,8.654517382
86,X21,1,8.560827228
86,X22,0,8.070280893
86,X23,0,10.68528643
86,X24,0,10.57852168
86,X25,0,7.501634458
86,X26,0,6.697034248
86,X27,1,6.214608098
86,X28,1,6.194405391
86,X29,1,6.230481448
86,X30,1,6.366470448
86,X31,1,6.313548046
86,X32,1,6.124683391
86,X33,0,6.70073111
86,X34,0,6.274762021
86,X35,0,6.216606101
86,X36,0,6.135564891
86,X37,1,6.309918278
86,X38,0,7.939158818
86,X39,1,6.06610809
86,X40,0,7.297091005
87,X1,0,8.985695695
87,X2,0,9.015298251
87,X3,1,7.983098941
87,X4,0,8.119993828
87,X5,0,8.019612794
87,X6,1,8.743372131
87,X7,0,8.108924156
87,X8,1,7.922261058
87,X9,0,8.231376046
87,X10,0,8.656781206
87,X11,1,8.032035314
87,X12,0,8.259199363
87,X13,0,8.218247927
87,X14,1,8.016317899
87,X15,0,8.383890344
87,X16,1,8.318010278
87,X17,1,8.800415333
87,X18,0,8.362642432
87,X19,0,8.725832057
87,X20,0,8.458504195
87,X21,0,8.230310799
87,X22,0,9.29366998
87,X23,1,8.179760494
87,X24,0,8.07589363
87,X25,1,8.137980454
87,X26,0,7.734558844
87,X27,1,7.90359629
87,X28,1,8.011686729
87,X29,0,8.418477218
87,X30,1,8.35396813
87,X31,0,8.120291314
87,X32,1,8.314587291
87,X33,1,7.943072717
87,X34,0,8.563313127
87,X35,0,7.513709248
87,X36,0,8.108623268
87,X37,1,8.442254105
87,X38,0,8.33014046
87,X39,1,7.761319181
87,X40,1,8.378390789
88,X1,1,8.283241441
88,X2,0,8.526152933
88,X3,0,7.313886832
88,X4,1,7.349873705
88,X5,1,7.515889085
88,X6,1,7.852827812
88,X7,1,8.008032847
88,X8,0,8.147288259
88,X9,1,8.472614148
88,X10,0,7.448333861
88,X11,1,7.515889085
88,X12,0,8.349720837
88,X13,1,8.522976436
88,X14,0,8.445267452
88,X15,1,8.111928063
88,X16,1,7.952966791
88,X17,0,7.387090236
88,X18,1,8.527737405
88,X19,0,8.123854263
88,X20,0,10.14270128
88,X21,0,7.691200098
88,X22,1,8.248267447
88,X23,1,7.380879036
88,X24,0,8.511778559
88,X25,1,8.167635715
88,X26,1,7.961718816
88,X27,1,9.118773178
88,X28,0,7.375882148
88,X29,1,7.97831097
88,X30,1,8.047509511
88,X31,1,7.791935957
88,X32,1,7.669028289
88,X33,0,7.978653729
88,X34,0,7.615791072
88,X35,1,7.571473649
88,X36,0,7.515889085
88,X37,0,8.45723085
88,X38,1,8.013674143
88,X39,0,8.412054873
88,X40,0,7.5750717
89,X1,0,9.136478523
89,X2,1,8.800565992
89,X3,1,9.43986353
89,X4,0,8.242493153
89,X5,1,8.710124927
89,X6,0,8.176953868
89,X7,0,8.585038738
89,X8,1,7.61283103
89,X9,0,9.600894867
89,X10,1,8.370315996
89,X11,0,8.422442855
89,X12,1,8.130647968
89,X13,0,9.175231195
89,X14,1,9.11316846
89,X15,1,9.858490187
89,X16,1,8.098338846
89,X17,1,9.262648152
89,X18,0,8.976135873
89,X19,1,8.378620542
89,X20,0,8.357962966
89,X21,1,7.828834528
89,X22,1,8.847647356
89,X23,1,10.71014197
89,X24,1,8.39705739
89,X25,1,7.921172722
89,X26,0,10.05702376
89,X27,1,9.401291255
89,X28,0,8.456806041
89,X29,0,9.517604459
89,X30,1,8.702344075
89,X31,0,8.723394022
89,X32,0,10.60898318
89,X33,0,8.633196867
89,X34,0,8.174139343
89,X35,0,9.537411413
89,X36,1,8.0522965
89,X37,0,9.014933576
89,X38,0,8.00836557
89,X39,0,8.08671792
89,X40,0,7.738923757
90,X1,0,8.107418812
90,X2,1,8.299285907
90,X3,0,7.13169851
90,X4,0,7.543802868
90,X5,1,8.052614819
90,X6,1,8.006367568
90,X7,0,7.672757897
90,X8,0,8.077447149
90,X9,0,8.077757564
90,X10,1,8.030084094
90,X11,0,7.576609767
90,X12,1,7.235619141
90,X13,0,8.198914445
90,X14,0,7.676473646
90,X15,0,7.76937861
90,X16,1,7.985484357
90,X17,1,7.33171497
90,X18,1,7.914983006
90,X19,1,7.286191715
90,X20,0,7.333676396
90,X21,1,8.094683649
90,X22,1,8.697846691
90,X23,1,8.32530603
90,X24,0,7.677400431
90,X25,1,7.946263644
90,X26,1,7.882314919
90,X27,0,7.966239777
90,X28,0,7.11395611
90,X29,1,7.307202315
90,X30,1,7.368970402
90,X31,0,7.639642288
90,X32,0,7.093404626
90,X33,1,7.584264818
90,X34,0,7.465082736
90,X35,0,7.302496424
90,X36,0,7.426549072
90,X37,1,8.067776196
90,X38,0,7.794823152
90,X39,0,7.857867559
90,X40,0,7.584264818
91,X1,0,8.602636673
91,X2,0,8.166500319
91,X3,0,8.410943392
91,X4,1,8.198639455
91,X5,1,8.140607043
91,X6,0,7.693937326
91,X7,1,8.392763113
91,X8,0,7.351799869
91,X9,0,7.677400431
91,X10,0,8.033334016
91,X11,0,7.87207398
91,X12,1,8.666647145
91,X13,0,7.665284718
91,X14,1,7.430707083
91,X15,0,8.07589363
91,X16,0,7.571988449
91,X17,1,7.960672608
91,X18,0,7.581209826
91,X19,1,7.28276118
91,X20,0,7.202661197
91,X21,1,7.03438793
91,X22,0,7.325807503
91,X23,0,7.515889085
91,X24,0,7.443078374
91,X25,1,8.164510269
91,X26,1,7.328437353
91,X27,0,8.220133957
91,X28,1,7.470793774
91,X29,1,7.802209316
91,X30,1,8.13005904
91,X31,1,8.122074375
91,X32,1,7.084226422
91,X33,0,7.434847875
91,X34,0,7.833600224
91,X35,1,8.424200325
91,X36,1,7.96797318
91,X37,1,7.086737935
91,X38,1,7.167037877
91,X39,1,7.788211558
91,X40,1,7.860956365
92,X1,1,8.722580021
92,X2,1,8.68067166
92,X3,0,8.059592329
92,X4,1,9.036582046
92,X5,1,8.743212603
92,X6,0,8.423761247
92,X7,1,8.320934969
92,X8,1,8.441607204
92,X9,1,8.188411308
92,X10,1,8.133587418
92,X11,0,7.965892735
92,X12,1,8.504513138
92,X13,1,8.351610751
92,X14,0,7.416979621
92,X15,0,8.034306936
92,X16,1,8.144679183
92,X17,1,8.607582191
92,X18,0,9.005650499
92,X19,0,8.129174997
92,X20,0,8.198089249
92,X21,0,9.090317329
92,X22,1,8.311152548
92,X23,1,8.226573475
92,X24,0,8.263848131
92,X25,0,8.181720455
92,X26,1,8.033658428
92,X27,0,7.977625099
92,X28,1,8.04205641
92,X29,1,8.416046009
92,X30,1,8.154787573
92,X31,1,8.161375023
92,X32,1,8.352318548
92,X33,0,8.380456668
92,X34,0,8.335431478
92,X35,0,8.685246776
92,X36,0,8.340933226
92,X37,1,8.227108234
92,X38,1,8.094988759
92,X39,0,7.920809679
92,X40,1,7.620705087
93,X1,1,8.359603271
93,X2,1,7.967280179
93,X3,1,8.018625465
93,X4,0,8.183118079
93,X5,0,8.336390481
93,X6,1,8.38685669
93,X7,0,8.45723085
93,X8,0,8.496990484
93,X9,1,8.549660382
93,X10,1,8.697679732
93,X11,1,8.179199798
93,X12,1,8.142354277
93,X13,1,8.328692584
93,X14,0,7.70210434
93,X15,1,8.475954443
93,X16,1,8.311152548
93,X17,1,8.25244609
93,X18,0,8.452121195
93,X19,0,8.353497099
93,X20,0,7.880048201
93,X21,1,7.429520843
93,X22,0,7.661527081
93,X23,1,7.830822995
93,X24,1,8.370315996
93,X25,1,7.868636894
93,X26,1,8.652597828
93,X27,1,8.011023379
93,X28,0,8.021584533
93,X29,0,8.099554282
93,X30,0,8.670429167
93,X31,0,8.283241441
93,X32,1,8.388677769
93,X33,0,8.151621647
93,X34,1,8.452121195
93,X35,1,9.299541017
93,X36,0,8.087025471
93,X37,0,8.210124405
93,X38,1,8.047509511
93,X39,0,7.921898411
93,X40,0,8.475746002
94,X1,0,8.430327258
94,X2,0,9.110409533
94,X3,0,8.943244933
94,X4,0,8.845921233
94,X5,1,8.682877107
94,X6,0,9.405578154
94,X7,1,8.712595488
94,X8,1,9.260843354
94,X9,0,8.65886635
94,X10,1,9.409191231
94,X11,1,9.125326998
94,X12,1,9.077151778
94,X13,0,9.003808086
94,X14,1,8.092239407
94,X15,1,8.441607204
94,X16,0,8.642944397
94,X17,1,8.714239144
94,X18,1,8.56902634
94,X19,0,9.170143182
94,X20,0,8.901638932
94,X21,1,8.668196065
94,X22,1,8.695171999
94,X23,0,8.58316818
94,X24,1,8.45723085
94,X25,1,8.39705739
94,X26,0,9.068431126
94,X27,0,8.440096141
94,X28,0,8.581669211
94,X29,1,8.433811582
94,X30,1,8.458928283
94,X31,0,8.502688505
94,X32,0,9.083075021
94,X33,0,8.58485184
94,X34,0,8.521384396
94,X35,1,8.22389538
94,X36,1,8.414052432
94,X37,0,8.634442751
94,X38,1,7.834392303
94,X39,0,8.878497404
94,X40,1,8.807771067
95,X1,0,8.35443894
95,X2,0,8.000684785
95,X3,0,7.717351272
95,X4,1,7.563719668
95,X5,0,7.584264818
95,X6,1,7.887208586
95,X7,0,9.459619397
95,X8,1,7.875119281
95,X9,0,8.403352375
95,X10,1,7.430707083
95,X11,0,7.43543802
95,X12,0,8.037543185
95,X13,1,8.034955025
95,X14,0,7.853604813
95,X15,0,8.016647877
95,X16,0,8.154500175
95,X17,1,7.320526962
95,X18,1,7.454141078
95,X19,0,7.847371836
95,X20,1,7.516977225
95,X21,1,7.989899375
95,X22,0,7.325807503
95,X23,0,6.922643891
95,X24,0,7.580189418
95,X25,1,9.000976444
95,X26,1,7.062191632
95,X27,0,8.11939859
95,X28,0,7.529943371
95,X29,1,7.430707083
95,X30,1,7.027314514
95,X31,0,7.841099765
95,X32,1,7.075808864
95,X33,1,6.484635236
95,X34,1,7.913886715
95,X35,1,7.865955414
95,X36,1,6.421622268
95,X37,0,6.472346295
95,X38,1,7.534228326
95,X39,0,8.011023379
95,X40,1,8.107418812
96,X1,1,9.089979015
96,X2,1,8.416267273
96,X3,0,10.30885266
96,X4,0,9.541297428
96,X5,1,8.258163362
96,X6,1,8.054840221
96,X7,0,10.18704865
96,X8,1,9.251962047
96,X9,1,9.309370895
96,X10,1,9.54859673
96,X11,1,9.717338681
96,X12,1,9.54215894
96,X13,1,9.924221119
96,X14,0,9.713113663
96,X15,0,9.46397433
96,X16,1,10.18009604
96,X17,1,8.362875831
96,X18,1,8.02059915
96,X19,1,7.983781069
96,X20,0,8.410720947
96,X21,0,7.941295571
96,X22,0,8.171034189
96,X23,1,8.475746002
96,X24,1,7.829232538
96,X25,0,8.009363077
96,X26,0,8.066835314
96,X27,1,8.939712054
96,X28,1,7.284134806
96,X29,1,8.122964715
96,X30,0,7.93701749
96,X31,0,8.248790734
96,X32,1,8.310169022
96,X33,1,7.92984643
96,X34,1,8.106212903
96,X35,1,8.332067707
96,X36,1,8.717190933
96,X37,1,8.543055851
96,X38,1,8.05610966
96,X39,0,8.215276959
96,X40,0,8.02125618
97,X1,1,9.14729407
97,X2,0,8.675051276
97,X3,1,9.041448235
97,X4,0,8.860641042
97,X5,0,8.204398418
97,X6,1,8.48115142
97,X7,1,9.217713126
97,X8,1,8.221747728
97,X9,0,8.095598701
97,X10,0,8.210939733
97,X11,1,8.761550139
97,X12,1,8.55120807
97,X13,0,8.303009381
97,X14,0,8.427487278
97,X15,0,8.523572798
97,X16,0,8.575650761
97,X17,0,8.130942302
97,X18,0,7.946971358
97,X19,1,8.287780027
97,X20,1,8.559677803
97,X21,0,8.893572719
97,X22,1,7.646353722
97,X23,1,8.98619632
97,X24,0,8.621733371
97,X25,1,9.098626382
97,X26,0,8.625688788
97,X27,0,8.216898581
97,X28,0,8.046549357
97,X29,0,8.539932678
97,X30,1,7.323170718
97,X31,0,8.285008895
97,X32,1,8.264105764
97,X33,0,7.648263031
97,X34,1,8.322637097
97,X35,1,8.76452191
97,X36,1,7.695757991
97,X37,1,8.569406063
97,X38,0,8.214735833
97,X39,0,7.641564441
97,X40,0,8.049746291
98,X1,1,8.785692444
98,X2,1,8.704336438
98,X3,0,9.238052811
98,X4,1,8.73456009
98,X5,0,9.403272108
98,X6,0,9.239996257
98,X7,1,9.540075681
98,X8,1,9.050640993
98,X9,0,8.458079927
98,X10,1,8.624072553
98,X11,0,8.98431768
98,X12,0,9.066123521
98,X13,0,8.479906607
98,X14,1,7.59739632
98,X15,0,8.778941882
98,X16,1,9.11482017
98,X17,0,9.094368196
98,X18,1,9.059284897
98,X19,1,8.717190933
98,X20,0,8.911529942
98,X21,0,8.309184528
98,X22,0,8.794976432
98,X23,0,8.654168646
98,X24,1,8.243808424
98,X25,0,8.738575192
98,X26,1,8.364042012
98,X27,1,7.993957548
98,X28,0,8.201660191
98,X29,1,8.722580021
98,X30,1,9.135077887
98,X31,1,7.768533301
98,X32,0,8.792701463
98,X33,1,8.511778559
98,X34,1,8.407155086
98,X35,1,7.792348924
98,X36,0,8.311398278
98,X37,1,7.765569081
98,X38,0,8.938400406
98,X39,1,9.516868732
98,X40,0,7.694848072
99,X1,0,8.869538777
99,X2,1,8.878218658
99,X3,1,8.609590041
99,X4,0,8.111027838
99,X5,1,8.091321274
99,X6,0,7.795234929
99,X7,0,7.835183755
99,X8,0,7.798112629
99,X9,1,7.936302693
99,X10,0,8.066835314
99,X11,0,8.509967146
99,X12,1,9.452109387
99,X13,0,8.555451904
99,X14,1,8.165079259
99,X15,0,8.206310726
99,X16,0,8.353732642
99,X17,1,8.196987927
99,X18,1,7.901377354
99,X19,1,8.183676583
99,X20,0,7.774855767
99,X21,0,7.744569809
99,X22,1,7.639642288
99,X23,0,7.974532844
99,X24,1,7.827639546
99,X25,1,8.352082671
99,X26,0,7.68386398
99,X27,0,7.577633833
99,X28,1,7.650644551
99,X29,1,8.035278911
99,X30,0,8.480736654
99,X31,0,7.603897969
99,X32,0,8.073402969
99,X33,0,7.843064017
99,X34,0,7.529406458
99,X35,1,7.474204806
99,X36,1,7.452982329
99,X37,1,7.880426344
99,X38,1,7.393263095
99,X39,0,7.913521017
99,X40,0,8.178358166
100,X1,1,8.888894669
100,X2,1,8.355614996
100,X3,0,8.38526052
100,X4,0,8.045588281
100,X5,1,8.57847642
100,X6,1,9.317399444
100,X7,0,7.846198815
100,X8,0,7.264030143
100,X9,0,8.028455164
100,X10,1,8.010359589
100,X11,1,7.918992488
100,X12,0,8.209036266
100,X13,1,8.594894699
100,X14,0,8.184234774
100,X15,0,7.372746366
100,X16,1,8.206310726
100,X17,0,7.697121317
100,X18,0,8.056426768
100,X19,0,7.94944442
100,X20,0,7.898782357
100,X21,1,8.103494278
100,X22,0,8.261009786
100,X23,1,8.394799543
100,X24,1,8.117908942
100,X25,1,8.040124664
100,X26,1,7.828834528
100,X27,0,7.221105098
100,X28,0,7.298445102
100,X29,0,7.651120176
100,X30,1,7.716906135
100,X31,1,7.768110379
100,X32,0,7.952263309
100,X33,1,7.772331575
100,X34,0,7.547501683
100,X35,1,7.340835554
100,X36,1,7.475339237
100,X37,0,7.199678346
100,X38,0,7.381501895
100,X39,1,7.54802897
100,X40,1,7.138073034
101,X1,1,8.676075516
101,X2,1,8.555836815
101,X3,1,7.860956365
101,X4,1,7.682021511
101,X5,0,8.375860015
101,X6,0,7.971776123
101,X7,0,8.510571315
101,X8,0,8.826881344
101,X9,1,8.432724035
101,X10,0,8.02059915
101,X11,1,8.667163718
101,X12,0,7.989899375
101,X13,0,7.580189418
101,X14,0,8.576970395
101,X15,1,7.825245291
101,X16,1,8.413830678
101,X17,1,8.360539381
101,X18,0,7.427144133
101,X19,0,9.579971027
101,X20,1,8.335431478
101,X21,1,8.808668062
101,X22,0,9.228965836
101,X23,0,8.337587942
101,X24,0,8.515792211
101,X25,0,8.98619632
101,X26,1,8.855378246
101,X27,0,8.015987811
101,X28,1,8.065893547
101,X29,0,8.718827059
101,X30,1,8.581481681
101,X31,0,9.676712415
101,X32,0,8.059276223
101,X33,0,8.083945702
101,X34,1,8.24170316
101,X35,1,8.243282523
101,X36,0,8.627481545
101,X37,1,8.230577217
101,X38,0,9.937502431
101,X39,1,7.530479995
101,X40,0,8.002694162
102,X1,1,8.65625924
102,X2,0,8.170185653
102,X3,1,9.290536914
102,X4,0,8.223358899
102,X5,1,8.44719982
102,X6,0,8.261268151
102,X7,0,10.49656575
102,X8,1,7.736743682
102,X9,0,7.928406026
102,X10,0,7.588323677
102,X11,1,7.616283562
102,X12,0,7.156956365
102,X13,0,7.890208213
102,X14,0,7.622174595
102,X15,1,7.724446646
102,X16,1,7.384610383
102,X17,0,7.379632153
102,X18,0,7.864419905
102,X19,0,7.825245291
102,X20,1,7.382124366
102,X21,1,7.534228326
102,X22,1,7.510430556
102,X23,1,11.2691582
102,X24,0,7.912423121
102,X25,1,7.486052618
102,X26,0,9.258273026
102,X27,0,7.262628601
102,X28,1,7.945555428
102,X29,0,7.671826798
102,X30,1,7.280008253
102,X31,0,7.848933726
102,X32,0,7.027314514
102,X33,0,8.334951631
102,X34,1,7.499423291
102,X35,1,7.77443551
102,X36,0,9.031094082
102,X37,0,7.779466967
102,X38,1,7.461065514
102,X39,1,7.616283562
102,X40,1,7.631916513
103,X1,1,8.926384681
103,X2,0,8.875985891
103,X3,1,8.576027977
103,X4,0,8.889997357
103,X5,1,8.937875265
103,X6,1,9.16104508
103,X7,0,8.654865997
103,X8,0,8.827614751
103,X9,1,9.066239028
103,X10,1,9.646076003
103,X11,1,8.207129168
103,X12,0,9.26350192
103,X13,0,8.197814032
103,X14,0,9.118444357
103,X15,0,8.122074375
103,X16,0,8.251142139
103,X17,0,9.290998275
103,X18,1,8.502485563
103,X19,1,9.739496952
103,X20,0,8.983314293
103,X21,0,8.150467912
103,X22,0,9.34145635
103,X23,0,8.666130304
103,X24,1,8.973351414
103,X25,1,8.343077871
103,X26,1,8.421783007
103,X27,1,8.308938253
103,X28,1,8.764209507
103,X29,1,8.540909718
103,X30,1,8.371010681
103,X31,1,9.7562049
103,X32,1,8.228977643
103,X33,1,8.763740721
103,X34,0,9.223059144
103,X35,0,8.135346949
103,X36,1,8.514389264
103,X37,0,9.186047679
103,X38,0,9.305923242
103,X39,0,8.483843212
103,X40,1,9.123583508
104,X1,0,8.469262658
104,X2,0,8.235360644
104,X3,0,7.671826798
104,X4,1,8.393216012
104,X5,1,7.654917048
104,X6,0,7.80139132
104,X7,1,8.286773231
104,X8,1,7.079184395
104,X9,0,6.698268054
104,X10,0,8.162801353
104,X11,0,6.632001777
104,X12,0,7.816013839
104,X13,1,8.782169426
104,X14,1,6.710523109
104,X15,1,6.452048954
104,X16,1,6.484635236
104,X17,1,6.458338283
104,X18,0,8.841881989
104,X19,0,6.570882962
104,X20,0,6.546785411
104,X21,1,6.830874235
104,X22,0,7.028201432
104,X23,0,6.598509029
104,X24,1,6.842683282
104,X25,1,6.693323668
104,X26,0,6.442540166
104,X27,1,7.037027615
104,X28,0,6.453624999
104,X29,0,7.019296654
104,X30,1,6.395261598
104,X31,0,6.226536669
104,X32,0,6.444131257
104,X33,0,6.708084084
104,X34,0,7.026426809
104,X35,1,7.659171368
104,X36,1,6.895682698
104,X37,0,7.068172
104,X38,0,6.393590754
104,X39,1,7.92984643
104,X40,0,6.410174882
105,X1,1,9.432923766
105,X2,0,8.233768709
105,X3,1,9.356257247
105,X4,1,8.774312958
105,X5,1,8.881697406
105,X6,0,8.709300049
105,X7,1,8.196712407
105,X8,1,8.237214703
105,X9,0,8.975503722
105,X10,0,9.182660803
105,X11,1,8.625868208
105,X12,1,9.00675432
105,X13,1,9.101529466
105,X14,1,8.387312271
105,X15,0,8.618846845
105,X16,0,9.899027622
105,X17,1,8.266421473
105,X18,0,8.15564927
105,X19,1,7.984462732
105,X20,1,8.73777346
105,X21,0,8.151333338
105,X22,1,8.776475789
105,X23,1,8.422222954
105,X24,0,8.59137259
105,X25,0,8.50512061
105,X26,0,7.729295674
105,X27,0,8.986321438
105,X28,1,8.804024902
105,X29,0,9.358674166
105,X30,1,7.9686657
105,X31,0,8.412277021
105,X32,0,8.550627968
105,X33,1,8.00836557
105,X34,1,7.981391582
105,X35,1,8.342601681
105,X36,0,8.283746747
105,X37,0,8.547528391
105,X38,0,8.240912542
105,X39,0,8.343077871
105,X40,0,8.459775921
106,X1,1,9.406811352
106,X2,1,9.091669442
106,X3,1,7.987184748
106,X4,0,8.22977775
106,X5,0,7.719573989
106,X6,0,8.778787929
106,X7,1,8.038512021
106,X8,1,7.95927596
106,X9,0,7.452402451
106,X10,1,7.928406026
106,X11,1,8.06022424
106,X12,1,8.552367266
106,X13,0,7.727975542
106,X14,1,8.580167991
106,X15,0,8.371936179
106,X16,0,8.027802848
106,X17,0,7.527255919
106,X18,1,8.459352192
106,X19,0,8.273081334
106,X20,1,7.99530662
106,X21,1,8.287780027
106,X22,1,7.923710334
106,X23,1,8.049107721
106,X24,1,8.076515328
106,X25,1,8.104703468
106,X26,1,9.504724932
106,X27,1,8.256347773
106,X28,1,8.109224953
106,X29,0,8.03106018
106,X30,1,8.285008895
106,X31,1,9.951277216
106,X32,1,8.29729437
106,X33,1,7.114769448
106,X34,0,8.102283624
106,X35,1,8.195057691
106,X36,0,7.990915463
106,X37,1,8.351610751
106,X38,1,7.393263095
106,X39,1,7.684783944
106,X40,1,7.912423121
107,X1,1,8.711443319
107,X2,0,8.148734809
107,X3,1,8.324821299
107,X4,0,8.703340753
107,X5,1,8.081784207
107,X6,1,8.185350223
107,X7,1,7.867488569
107,X8,1,8.721439306
107,X9,1,8.151621647
107,X10,0,8.075582637
107,X11,1,7.813995675
107,X12,0,7.7419679
107,X13,1,8.075271546
107,X14,0,8.518592212
107,X15,0,7.34601021
107,X16,0,7.13169851
107,X17,1,8.18339737
107,X18,1,7.645397699
107,X19,0,6.970730078
107,X20,0,7.681099002
107,X21,1,7.050989447
107,X22,0,7.375882148
107,X23,0,7.727094485
107,X24,1,7.003065459
107,X25,1,7.659642955
107,X26,1,7.830822995
107,X27,0,7.957177323
107,X28,1,7.667626092
107,X29,0,7.820439515
107,X30,0,8.985946039
107,X31,0,7.986504939
107,X32,0,7.436027816
107,X33,0,7.298445102
107,X34,1,7.40731771
107,X35,0,7.055312843
107,X36,1,7.017506143
107,X37,1,7.090909822
107,X38,1,6.705639095
107,X39,1,6.949856455
107,X40,1,6.900730664
108,X1,0,8.881975184
108,X2,1,8.634264863
108,X3,0,9.065661361
108,X4,1,8.326758815
108,X5,1,9.112727543
108,X6,1,8.736971085
108,X7,1,7.607878073
108,X8,1,8.506940815
108,X9,1,9.18338019
108,X10,1,8.557567086
108,X11,0,8.479283618
108,X12,0,8.724207361
108,X13,1,8.861350111
108,X14,1,9.134538659
108,X15,1,8.295548516
108,X16,1,8.104703468
108,X17,0,8.76623838
108,X18,1,8.627302414
108,X19,1,8.635864721
108,X20,0,8.363109176
108,X21,0,8.227375507
108,X22,0,8.708309296
108,X23,1,8.531096097
108,X24,1,8.677609913
108,X25,1,9.093132171
108,X26,1,8.729397123
108,X27,0,8.23164218
108,X28,1,8.427924724
108,X29,0,8.23164218
108,X30,1,8.29529886
108,X31,0,8.852235835
108,X32,0,9.199683792
108,X33,1,9.282568006
108,X34,1,9.008713664
108,X35,1,8.581856705
108,X36,0,8.467372496
108,X37,0,8.45914026
108,X38,0,8.506940815
108,X39,1,7.871692664
108,X40,0,7.986504939
109,X1,1,8.939056445
109,X2,0,6.519147288
109,X3,0,6.513230111
109,X4,1,6.311734809
109,X5,1,6.280395839
109,X6,1,6.751101469
109,X7,0,6.646390515
109,X8,1,6.419994928
109,X9,0,5.926926026
109,X10,0,7.631916513
109,X11,1,8.422662708
109,X12,0,7.778630147
109,X13,0,7.939158818
109,X14,0,7.903226809
109,X15,0,6.484635236
109,X16,1,8.413608875
109,X17,1,7.846980982
109,X18,1,8.323851131
109,X19,1,8.109826276
109,X20,0,8.326032686
109,X21,1,8.469472455
109,X22,1,6.194405391
109,X23,1,6.171700597
109,X24,0,7.578145472
109,X25,1,7.163946684
109,X26,1,7.729295674
109,X27,1,6.476972363
109,X28,1,7.556950572
109,X29,0,7.693025748
109,X30,1,8.106816039
109,X31,1,8.192570471
109,X32,1,7.585788822
109,X33,1,8.383661799
109,X34,0,8.024207486
109,X35,1,7.839131648
109,X36,1,8.541885804
109,X37,1,7.974188669
109,X38,0,8.042378005
109,X39,1,8.175266104
109,X40,1,7.577633833
110,X1,0,8.118207049
110,X2,0,8.282988693
110,X3,1,8.029432841
110,X4,1,7.665284718
110,X5,1,7.415776975
110,X6,0,7.821643126
110,X7,0,7.865571758
110,X8,0,7.270312886
110,X9,0,7.591357047
110,X10,1,7.868636894
110,X11,1,7.961718816
110,X12,1,7.405495663
110,X13,0,6.405228458
110,X14,0,7.741533589
110,X15,0,7.365812837
110,X16,0,8.27512163
110,X17,0,7.638198244
110,X18,1,7.361375429
110,X19,0,8.183676583
110,X20,1,8.263074836
110,X21,1,7.661527081
110,X22,0,7.126890809
110,X23,0,7.485491608
110,X24,1,8.034631033
110,X25,1,7.973155433
110,X26,0,7.390798522
110,X27,0,7.313886832
110,X28,0,8.02125618
110,X29,1,7.563200592
110,X30,1,7.705712824
110,X31,1,8.118802997
110,X32,0,7.939158818
110,X33,1,7.489412084
110,X34,0,8.277157772
110,X35,1,8.018625465
110,X36,0,8.077447149
110,X37,1,7.83715965
110,X38,1,7.434257382
110,X39,1,7.687538766
110,X40,1,7.011213987
111,X1,1,8.607033895
111,X2,0,7.375882148
111,X3,1,7.963807953
111,X4,0,7.069874128
111,X5,0,7.586296307
111,X6,1,7.494430215
111,X7,1,7.484368643
111,X8,1,7.277247727
111,X9,1,7.989221409
111,X10,1,8.588210679
111,X11,0,7.901007052
111,X12,0,8.033334016
111,X13,0,7.913886715
111,X14,0,8.924656302
111,X15,0,7.100851909
111,X16,0,6.98471632
111,X17,1,7.13089883
111,X18,0,8.217708407
111,X19,1,7.035268599
111,X20,1,9.241839039
111,X21,0,7.232010332
111,X22,1,7.035268599
111,X23,1,7.700295203
111,X24,1,7.03438793
111,X25,1,6.991176887
111,X26,1,6.996681488
111,X27,0,7.094234846
111,X28,1,8.170468578
111,X29,1,6.962243464
111,X30,1,7.267525428
111,X31,0,7.056175284
111,X32,0,7.281385664
111,X33,0,7.530479995
111,X34,1,6.996681488
111,X35,1,7.579167967
111,X36,1,10.44447374
111,X37,1,8.280457687
111,X38,0,8.631414336
111,X39,1,5.407171771
111,X40,1,7.183870715
112,X1,1,8.350193651
112,X2,0,8.320691571
112,X3,1,8.162231065
112,X4,0,9.37007543
112,X5,0,8.254528882
112,X6,1,8.166784289
112,X7,0,8.526351129
112,X8,1,8.881697406
112,X9,0,8.182000136
112,X10,0,8.36683531
112,X11,1,8.233237501
112,X12,1,8.159946656
112,X13,0,7.942362238
112,X14,1,8.06117136
112,X15,0,7.906915489
112,X16,0,8.078067882
112,X17,0,8.673855001
112,X18,1,7.708859601
112,X19,0,7.784473236
112,X20,0,7.834788107
112,X21,0,8.712101864
112,X22,1,7.882314919
112,X23,1,8.535229554
112,X24,0,7.135687347
112,X25,0,8.4147174
112,X26,0,7.953669779
112,X27,1,7.9490915
112,X28,0,8.290292591
112,X29,1,8.14612951
112,X30,0,7.640123173
112,X31,0,7.809541325
112,X32,0,8.285261134
112,X33,1,7.610357618
112,X34,0,7.907651595
112,X35,1,7.579678823
112,X36,0,9.174713194
112,X37,0,8.298788394
112,X38,1,7.643482907
112,X39,0,8.212568398
112,X40,0,7.744136628
113,X1,0,9.759963542
113,X2,0,8.874727766
113,X3,0,8.351138607
113,X4,0,8.725994381
113,X5,0,7.933796875
113,X6,0,8.433376705
113,X7,1,9.707107638
113,X8,1,8.094378445
113,X9,1,8.81135423
113,X10,0,8.614138397
113,X11,0,8.760923376
113,X12,0,9.142703723
113,X13,0,9.215228406
113,X14,1,8.60886038
113,X15,1,8.550821372
113,X16,0,8.24617156
113,X17,1,9.20663351
113,X18,0,10.26944924
113,X19,1,8.95001403
113,X20,0,10.59021417
113,X21,0,8.069342367
113,X22,1,7.97831097
113,X23,1,9.136909094
113,X24,0,8.542665987
113,X25,1,8.917578754
113,X26,1,7.920809679
113,X27,1,7.992268643
113,X28,0,8.133293861
113,X29,0,8.460411177
113,X30,1,8.897682313
113,X31,1,8.133000219
113,X32,1,9.335562337
113,X33,0,8.04334217
113,X34,0,8.146998697
113,X35,1,7.963112059
113,X36,1,8.239857411
113,X37,0,7.938445551
113,X38,0,8.427487278
113,X39,1,7.884199934
113,X40,1,8.681011277
114,X1,1,9.147081032
114,X2,0,9.349841411
114,X3,0,8.751790893
114,X4,1,9.229358378
114,X5,1,8.697011618
114,X6,0,8.713582005
114,X7,1,8.855663431
114,X8,1,8.566554621
114,X9,0,8.520388082
114,X10,0,8.634798433
114,X11,1,8.726481196
114,X12,0,8.67419694
114,X13,1,8.300776961
114,X14,1,8.796943894
114,X15,0,8.450839691
114,X16,1,8.992433087
114,X17,0,8.612503371
114,X18,1,8.689296048
114,X19,1,8.961494323
114,X20,1,8.448271746
114,X21,0,8.462737006
114,X22,0,8.19450551
114,X23,1,8.783089672
114,X24,0,8.644706512
114,X25,1,7.172424577
114,X26,1,9.404096306
114,X27,1,8.443546651
114,X28,0,8.746239288
114,X29,0,8.240121298
114,X30,1,8.776321456
114,X31,1,8.622813673
114,X32,0,8.545002892
114,X33,0,8.614501374
114,X34,1,8.378620542
114,X35,1,8.483843212
114,X36,0,8.438582791
114,X37,0,7.964850887
114,X38,0,7.146772179
114,X39,0,8.365439636
114,X40,0,8.209852481
115,X1,1,8.766705998
115,X2,0,7.618742378
115,X3,1,8.458079927
115,X4,0,8.205218426
115,X5,0,8.282988693
115,X6,0,8.089175679
115,X7,0,9.008224188
115,X8,1,8.319229939
115,X9,1,8.181440696
115,X10,1,8.661293535
115,X11,1,8.29154651
115,X12,0,9.612198984
115,X13,0,8.206856428
115,X14,1,8.86220033
115,X15,0,7.961718816
115,X16,1,8.636752426
115,X17,0,8.015987811
115,X18,0,8.290794347
115,X19,0,8.528924114
115,X20,1,8.452121195
115,X21,0,8.172446818
115,X22,1,9.745312118
115,X23,1,8.480321717
115,X24,1,8.448914351
115,X25,0,7.948738455
115,X26,1,10.19533593
115,X27,1,9.04192172
115,X28,0,8.274102002
115,X29,1,8.336390481
115,X30,0,8.931816237
115,X31,1,8.325790526
115,X32,1,8.759982495
115,X33,0,8.36124089
115,X34,0,8.520388082
115,X35,1,9.525734883
115,X36,0,8.580918882
115,X37,1,8.437500423
115,X38,0,8.059908335
115,X39,1,8.379768516
115,X40,0,8.059908335
